Illite Illite IMt-1.b 0.2-3um estimated optical constants

R. N. Clark, 3/2002
deleted points = -1.23e34

       wavelength        n         k (cm^-1)

        .205100       1.598888       -1.23e34
        .213100       1.598712       -1.23e34
        .221100       1.598536       -1.23e34
        .229100       1.598361       -1.23e34
        .236100       1.598207       -1.23e34
        .242100       1.598075       -1.23e34
        .248100       1.597943       -1.23e34
        .253600       1.597823       -1.23e34
        .258600       1.597713       -1.23e34
        .263600       1.597603    5907.785156
        .268600       1.597493    5432.186523
        .273100       1.597394    5176.095703
        .277100       1.597306    4625.803711
        .281100       1.597219    4522.148438
        .285100       1.597131    4165.449219
        .289100       1.597043    3849.146484
        .293100       1.596955    3602.963379
        .297100       1.596867    3229.496582
        .301100       1.596779    2789.720703
        .305100       1.596691    2592.317383
        .309100       1.596604    2340.608398
        .313100       1.596516    2150.254883
        .317100       1.596428    1903.690674
        .321100       1.596340    1790.507568
        .325100       1.596252    1640.930298
        .329100       1.596164    1567.189697
        .333100       1.596076    1465.629761
        .337100       1.595989    1387.697266
        .341100       1.595901    1326.342041
        .345100       1.595813    1264.510498
        .349100       1.595725    1218.113037
        .353100       1.595637    1240.406616
        .357100       1.595549    1201.154419
        .360600       1.595472    1165.141602
        .363600       1.595407    1140.180298
        .366600       1.595341    1119.220581
        .369600       1.595275    1099.785034
        .372600       1.595209    1068.345215
        .375600       1.595143    1045.289429
        .378600       1.595077    1008.704956
        .381100       1.595022     978.789551
        .383100       1.594978     959.639832
        .385100       1.594934     936.679321
        .387100       1.594890     909.336182
        .389100       1.594846     892.854126
        .391100       1.594803     874.180786
        .393100       1.594759     854.364258
        .395100       1.594715     832.642212
        .397100       1.594671     814.445251
        .399100       1.594627     801.011841
        .401100       1.594583     785.101379
        .403100       1.594539     774.526245
        .405100       1.594495     757.853577
        .407100       1.594451     746.516235
        .409100       1.594407     736.798462
        .411100       1.594363     713.933228
        .412800       1.594326     711.075073
        .415800       1.594260     690.639160
        .418800       1.594194     673.633118
        .421800       1.594128     653.244873
        .424800       1.594062     632.951904
        .427800       1.593996     614.659668
        .430800       1.593930     592.318359
        .433800       1.593865     573.264038
        .436800       1.593799     555.400513
        .439800       1.593733     536.250793
        .442800       1.593667     523.103210
        .445800       1.593601     510.527344
        .448800       1.593535     498.808838
        .451300       1.593480     487.138031
        .453300       1.593436     480.040283
        .455300       1.593392     471.989777
        .457300       1.593349     467.750183
        .459300       1.593305     464.034546
        .461300       1.593261     454.507324
        .463300       1.593217     454.031006
        .465300       1.593173     445.408844
        .467300       1.593129     442.884155
        .469300       1.593085     434.500244
        .471300       1.593041     430.736969
        .473300       1.592997     424.544281
        .475300       1.592953     418.875610
        .477300       1.592909     416.112732
        .479300       1.592865     410.253479
        .481300       1.592821     405.823303
        .483300       1.592777     399.964081
        .485300       1.592734     394.009583
        .487300       1.592690     389.055420
        .489300       1.592646     384.577637
        .491300       1.592602     377.575165
        .493300       1.592558     373.954803
        .495300       1.592514     366.023438
        .497300       1.592470     361.759979
        .499300       1.592426     356.234222
        .501300       1.592382     350.279724
        .503300       1.592338     342.991425
        .505300       1.592294     338.751770
        .507300       1.592250     333.511841
        .509300       1.592206     327.747894
        .511300       1.592162     321.602844
        .513300       1.592118     317.815735
        .515300       1.592075     311.861267
        .517300       1.592031     306.692719
        .519300       1.591987     301.619507
        .521300       1.591943     296.236633
        .523300       1.591899     292.116119
        .525300       1.591855     287.805054
        .527300       1.591811     283.494019
        .529300       1.591767     280.373840
        .531300       1.591723     275.491150
        .533300       1.591679     269.917725
        .535300       1.591635     267.035706
        .537300       1.591591     264.296661
        .539300       1.591547     259.485413
        .541300       1.591504     256.341431
        .543300       1.591460     254.102570
        .545300       1.591416     251.172958
        .547300       1.591372     250.601303
        .549300       1.591328     247.814606
        .551300       1.591284     246.075882
        .553300       1.591240     245.218445
        .555300       1.591196     242.003021
        .557300       1.591152     242.860474
        .559300       1.591108     241.812469
        .561300       1.591064     241.669556
        .563300       1.591020     239.787949
        .565300       1.590976     239.168655
        .567300       1.590932     238.144501
        .569300       1.590889     238.668488
        .571300       1.590845     238.406479
        .573300       1.590801     238.597031
        .575300       1.590757     238.930496
        .577300       1.590713     238.477936
        .579300       1.590669     239.978470
        .581300       1.590625     240.931198
        .583300       1.590581     242.384094
        .585300       1.590537     243.360641
        .587300       1.590493     243.432098
        .589300       1.590449     243.598831
        .591300       1.590405     246.123520
        .593300       1.590361     248.719696
        .595300       1.590317     252.864014
        .597300       1.590273     252.625854
        .599300       1.590230     254.674194
        .601100       1.590190     256.531982
        .602700       1.590155     257.365662
        .604300       1.590120     259.390137
        .605900       1.590085     260.604919
        .607500       1.590049     263.939392
        .609100       1.590014     264.106110
        .610700       1.589979     267.130981
        .612300       1.589944     268.488647
        .613900       1.589909     270.703735
        .615500       1.589874     270.298798
        .617100       1.589839     273.704773
        .618700       1.589803     274.943298
        .620300       1.589768     275.991333
        .621900       1.589733     275.848450
        .623500       1.589698     278.539856
        .625100       1.589663     280.088013
        .626700       1.589628     280.564392
        .628300       1.589593     282.374512
        .629900       1.589557     286.066345
        .631700       1.589518     287.185791
        .633700       1.589474     288.876862
        .635700       1.589430     293.640472
        .637700       1.589386     293.545197
        .639700       1.589342     296.784454
        .641700       1.589298     298.213531
        .643700       1.589254     299.714050
        .645700       1.589210     301.476624
        .647700       1.589166     304.358582
        .649700       1.589123     307.359650
        .651700       1.589079     307.645477
        .653700       1.589035     311.099060
        .655700       1.588991     313.457062
        .657700       1.588947     315.648315
        .659700       1.588903     317.267944
        .661700       1.588859     320.364258
        .663700       1.588815     320.745361
        .665700       1.588771     324.913513
        .667700       1.588727     326.890411
        .670200       1.588672     331.892212
        .673200       1.588606     332.154236
        .676200       1.588540     337.441772
        .679200       1.588475     340.561951
        .682200       1.588409     345.230286
        .685200       1.588343     348.564819
        .688200       1.588277     350.613190
        .691200       1.588211     353.518982
        .694200       1.588145     358.711273
        .697200       1.588079     363.617798
        .700200       1.588013     364.665771
        .702000       1.587974     368.857788
        .704000       1.587930     371.096649
        .706000       1.587886     373.597534
        .708000       1.587842     375.169556
        .710000       1.587798     379.004242
        .712000       1.587754     381.195496
        .714000       1.587710     382.815125
        .716000       1.587666     385.792358
        .718000       1.587622     387.388184
        .720000       1.587579     389.388885
        .722000       1.587535     393.056885
        .724000       1.587491     392.580505
        .726000       1.587447     397.963379
        .728000       1.587403     398.153900
        .730000       1.587359     399.487732
        .732000       1.587315     401.488434
        .734000       1.587271     403.322449
        .736000       1.587227     404.727692
        .738000       1.587183     406.204407
        .740000       1.587139     407.442932
        .742000       1.587095     408.586243
        .744000       1.587051     409.729492
        .746000       1.587007     409.777130
        .748000       1.586964     410.777466
        .750500       1.586908     413.302185
        .753500       1.586843     412.587646
        .756500       1.586777     412.730560
        .759500       1.586711     410.015320
        .762500       1.586645     415.636353
        .765500       1.586579     411.968353
        .768500       1.586513     409.586578
        .771500       1.586447     410.348724
        .774500       1.586381     409.586578
        .777500       1.586316     407.395294
        .781000       1.586239     405.585144
        .785000       1.586151     404.632416
        .789000       1.586063     403.322449
        .793000       1.585975     397.391754
        .797000       1.585887     394.485962
        .801500       1.585788     391.175232
        .806500       1.585679     387.435791
        .811500       1.585569     384.958740
        .816500       1.585459     383.291473
        .822000       1.585338     380.076050
        .828000       1.585206     378.432587
        .835000       1.585053     377.289337
        .843000       1.584877     376.479553
        .851000       1.584701     370.429779
        .859000       1.584525     381.528931
        .871000       1.584262     389.912903
        .883000       1.583998     398.249176
        .894000       1.583757     394.819427
        .904000       1.583537     402.250641
        .914000       1.583317     413.492706
        .924000       1.583098     419.828308
        .933000       1.582900     420.137939
        .941000       1.582724     423.067566
        .949000       1.582549     432.213684
        .957000       1.582373     434.571655
        .964000       1.582219     434.976563
        .970000       1.582087     432.070770
        .976000       1.581956     435.452942
        .982000       1.581824     440.502380
        .988000       1.581692     437.548950
        .994000       1.581560     447.885956
       1.000000       1.581428     447.361938
       1.006000       1.581297     449.124481
       1.012000       1.581165     451.411011
       1.018000       1.581033     452.411377
       1.023500       1.580912     458.175323
       1.028500       1.580802     457.365540
       1.033500       1.580693     455.888794
       1.038500       1.580583     459.794952
       1.043500       1.580473     461.509857
       1.048500       1.580363     469.226898
       1.053500       1.580253     465.987640
       1.058500       1.580144     467.511993
       1.063500       1.580034     466.464020
       1.068500       1.579924     470.941803
       1.073500       1.579814     473.752319
       1.078500       1.579704     476.753387
       1.083500       1.579594     472.990112
       1.088500       1.579485     474.419189
       1.093500       1.579375     484.708618
       1.098500       1.579265     481.612274
       1.103500       1.579155     484.518066
       1.108500       1.579045     479.706818
       1.113500       1.578936     475.800659
       1.118500       1.578826     477.658447
       1.123500       1.578716     479.659180
       1.128500       1.578606     479.039886
       1.133500       1.578496     473.418854
       1.138500       1.578386     476.801025
       1.143500       1.578277     479.087524
       1.148500       1.578167     472.370880
       1.153500       1.578057     473.752319
       1.158500       1.577947     475.371948
       1.163500       1.577837     475.038483
       1.168500       1.577727     466.797424
       1.173500       1.577618     460.938202
       1.178500       1.577508     460.842926
       1.183500       1.577398     459.128021
       1.188500       1.577288     453.935730
       1.193500       1.577178     449.600861
       1.198500       1.577069     446.837952
       1.203500       1.576959     448.267029
       1.208500       1.576849     443.003235
       1.213500       1.576739     447.219025
       1.218500       1.576629     436.072205
       1.223500       1.576519     432.880615
       1.228500       1.576410     428.164642
       1.233500       1.576300     426.402100
       1.238500       1.576190     417.779968
       1.243500       1.576080     415.683990
       1.248500       1.575970     414.112000
       1.253500       1.575861     411.253845
       1.258500       1.575751     406.299683
       1.263500       1.575641     403.250977
       1.268500       1.575531     398.106262
       1.273500       1.575421     394.343048
       1.278500       1.575311     392.389954
       1.283500       1.575202     387.102386
       1.288500       1.575092     383.148560
       1.293500       1.574982     382.148224
       1.298500       1.574872     375.717346
       1.303500       1.574762     370.382141
       1.308500       1.574653     369.524658
       1.313500       1.574543     361.783813
       1.318500       1.574433     359.282928
       1.323500       1.574323     357.258362
       1.328500       1.574213     351.375336
       1.333500       1.574103     349.422241
       1.338500       1.573994     346.421173
       1.343500       1.573884     342.229218
       1.348500       1.573774     340.276123
       1.353500       1.573664     337.822876
       1.358500       1.573554     335.083832
       1.363500       1.573444     332.606720
       1.368500       1.573335     328.081299
       1.373500       1.573225     326.771301
       1.378500       1.573115     320.626282
       1.383500       1.573005     319.363922
       1.388500       1.572895     318.506500
       1.393500       1.572785     318.697021
       1.398500       1.572676     324.484802
       1.403500       1.572566     329.129333
       1.408500       1.572456     328.224213
       1.413500       1.572346     329.510376
       1.418500       1.572237     330.463135
       1.423500       1.572127     319.221008
       1.428500       1.572017     311.646881
       1.433500       1.571907     303.096252
       1.438500       1.571797     293.783386
       1.443500       1.571687     291.496826
       1.448500       1.571578     287.733612
       1.453500       1.571468     283.875061
       1.458500       1.571358     274.133545
       1.463500       1.571248     273.871521
       1.468500       1.571138     269.679565
       1.473500       1.571028     266.440308
       1.478500       1.570919     263.320129
       1.483500       1.570809     256.960724
       1.488500       1.570699     257.675293
       1.493500       1.570589     252.887833
       1.498500       1.570479     249.196045
       1.503500       1.570369     249.100769
       1.508500       1.570260     243.074814
       1.513500       1.570150     240.311935
       1.518500       1.570040     242.884277
       1.523500       1.569930     235.000519
       1.528500       1.569820     235.595963
       1.534000       1.569700     230.760895
       1.540000       1.569568     229.974915
       1.546000       1.569436     223.972763
       1.552000       1.569304     223.972763
       1.558000       1.569173     218.089722
       1.564000       1.569041     216.541550
       1.570500       1.568898     214.231201
       1.577500       1.568744     212.587753
       1.584500       1.568590     207.585983
       1.591500       1.568437     204.704010
       1.598500       1.568283     201.798187
       1.605500       1.568129     202.774734
       1.612500       1.567975     197.487137
       1.619500       1.567822     193.723892
       1.626500       1.567668     193.199905
       1.633500       1.567514     192.580627
       1.640500       1.567360     188.269562
       1.647500       1.567207     186.626114
       1.654500       1.567053     181.981598
       1.661500       1.566899     182.267426
       1.668500       1.566745     180.314362
       1.676000       1.566581     177.861099
       1.684000       1.566405     176.003281
       1.692000       1.566229     170.548950
       1.700000       1.566054     168.357697
       1.708000       1.565878     163.772736
       1.716000       1.565702     163.570297
       1.724000       1.565526     163.629822
       1.732000       1.565351     161.486206
       1.740000       1.565175     155.615067
       1.748000       1.564999     153.114166
       1.756000       1.564824     153.221344
       1.764000       1.564648     150.994370
       1.772000       1.564472     153.328537
       1.780000       1.564296     149.612930
       1.788000       1.564121     144.063324
       1.796000       1.563945     147.362122
       1.805000       1.563747     145.135147
       1.815000       1.563528     143.670349
       1.825000       1.563308     143.015350
       1.835000       1.563088     141.252808
       1.845000       1.562869     140.466812
       1.855000       1.562649     139.859467
       1.865000       1.562429     139.275909
       1.875000       1.562210     144.349152
       1.885000       1.561990     153.554810
       1.895000       1.561770     165.308990
       1.905000       1.561551     183.053421
       1.915000       1.561331     183.339249
       1.925000       1.561111     176.229553
       1.935000       1.560892     165.880646
       1.945000       1.560672     162.677124
       1.955000       1.560453     159.283035
       1.965000       1.560233     154.852890
       1.975000       1.560013     151.280197
       1.985000       1.559794     148.755478
       1.995000       1.559574     143.920410
       2.005000       1.559354     139.085373
       2.015000       1.559135     135.607925
       2.025000       1.558915     132.059052
       2.035000       1.558695     131.404053
       2.045000       1.558476     130.713348
       2.055000       1.558256     128.676880
       2.065000       1.558036     129.057983
       2.075000       1.557817     125.413818
       2.085000       1.557597     125.544823
       2.095000       1.557378     128.188629
       2.105000       1.557158     128.676880
       2.115000       1.556938     128.700699
       2.125000       1.556719     127.581268
       2.135000       1.556499     124.723099
       2.145000       1.556279     128.938889
       2.155000       1.556060     133.357117
       2.165000       1.555840     141.776794
       2.175000       1.555620     154.388458
       2.185000       1.555401     167.869446
       2.195000       1.555181     190.794281
       2.205000       1.554962     212.087585
       2.215000       1.554742     217.518097
       2.225000       1.554522     210.920502
       2.235000       1.554303     204.704010
       2.245000       1.554083     193.652435
       2.255000       1.553863     193.533340
       2.265000       1.553644     182.862869
       2.275000       1.553424     170.048782
       2.285000       1.553204     162.165009
       2.295000       1.552985     167.309723
       2.305000       1.552765     183.053421
       2.315000       1.552546     193.199905
       2.325000       1.552326     206.347443
       2.335000       1.552106     213.397568
       2.345000       1.551887     228.140930
       2.355000       1.551667     233.976334
       2.365000       1.551447     224.568237
       2.375000       1.551228     224.222870
       2.386000       1.550986     225.830582
       2.400000       1.550678     222.210251
       2.418000       1.550283     235.095795
       2.440000       1.549800     256.865448
       2.466000       1.549229     268.012299
       2.496000       1.548570     267.035706
       2.528000       1.547867     269.870117
       2.560000       1.547164     283.398743
       2.592000       1.546461     309.265106
       2.624000       1.545758     339.228149
       2.656000       1.545056     387.150024
       2.688000       1.544353     871.799011
       2.720000       1.543650    5009.178711
       2.752000       1.542947   14995.677734
       2.784000       1.542244   14915.814453
       2.816000       1.541541   14836.851563
       2.848000       1.540839    6770.950195
       2.880000       1.540136    5198.389648
       2.912000       1.539433    8789.384766
       2.944000       1.538730    6573.736328
       2.976000       1.538027    5323.576172
