Saponite SapCa-1.AcB 0.2-3um estimated optical constants

R. N. Clark, 3/2002
deleted points = -1.23e34

Note: the high values near .23 micron are probably
due to noise.

       wavelength        n         k (cm^-1)

        .205100       1.529305      -1.23e34
        .213100       1.529137      -1.23e34
        .221100       1.528968    2227.234863
        .229100       1.528800    2287.446777
        .236100       1.528653    2012.300781
        .242100       1.528527    1927.699219
        .248100       1.528401    1960.472900
        .253600       1.528286    1954.375488
        .258600       1.528181    1916.266602
        .263600       1.528076    1891.876953
        .268600       1.527971    1820.613525
        .273100       1.527876    1699.427490
        .277100       1.527792    1558.043701
        .281100       1.527708    1432.093994
        .285100       1.527624    1295.283325
        .289100       1.527540    1190.865112
        .293100       1.527456    1073.680420
        .297100       1.527372     963.546021
        .301100       1.527288     849.410034
        .305100       1.527204     748.898010
        .309100       1.527120     659.389893
        .313100       1.527036     587.126038
        .317100       1.526952     522.055298
        .321100       1.526868     468.655243
        .325100       1.526783     412.730560
        .329100       1.526700     369.095947
        .333100       1.526616     337.227417
        .337100       1.526531     302.334045
        .341100       1.526447     270.822815
        .345100       1.526363     248.743515
        .349100       1.526279     221.852966
        .353100       1.526195     198.940033
        .357100       1.526111     179.028168
        .360600       1.526038     162.593750
        .363600       1.525975     151.685089
        .366600       1.525912     142.503235
        .369600       1.525849     133.440491
        .372600       1.525786     123.663200
        .375600       1.525723     114.683807
        .378600       1.525660     108.300575
        .381100       1.525607     102.441353
        .383100       1.525565      98.339859
        .385100       1.525523      94.897507
        .387100       1.525481      90.618988
        .389100       1.525439      85.748428
        .391100       1.525397      81.689636
        .393100       1.525355      77.618622
        .395100       1.525313      74.853775
        .397100       1.525271      71.979034
        .399100       1.525229      68.908997
        .401100       1.525187      66.711761
        .403100       1.525145      65.143173
        .405100       1.525103      63.391479
        .407100       1.525061      62.213509
        .409100       1.525019      60.718163
        .411100       1.524977      58.240158
        .412800       1.524941      57.867851
        .415800       1.524878      55.939156
        .418800       1.524815      54.626915
        .421800       1.524752      52.661606
        .424800       1.524689      51.007568
        .427800       1.524626      49.268089
        .430800       1.524563      47.742226
        .433800       1.524500      45.309998
        .436800       1.524437      43.167686
        .439800       1.524374      41.589943
        .442800       1.524311      40.415024
        .445800       1.524248      39.432373
        .448800       1.524185      38.229988
        .451300       1.524132      37.277847
        .453300       1.524090      36.859764
        .455300       1.524048      36.218903
        .457300       1.524006      35.819122
        .459300       1.523964      35.141640
        .461300       1.523922      34.021652
        .463300       1.523880      33.100037
        .465300       1.523838      31.861031
        .467300       1.523796      30.789875
        .469300       1.523754      29.642426
        .471300       1.523712      28.375957
        .473300       1.523670      27.332268
        .475300       1.523628      26.401489
        .477300       1.523586      25.360851
        .479300       1.523544      24.771870
        .481300       1.523502      24.256130
        .483300       1.523460      23.683929
        .485300       1.523418      22.843182
        .487300       1.523376      22.028370
        .489300       1.523334      21.564507
        .491300       1.523292      20.880920
        .493300       1.523250      20.407902
        .495300       1.523208      19.586987
        .497300       1.523166      19.020889
        .499300       1.523124      18.225914
        .501300       1.523082      17.493500
        .503300       1.523040      17.047947
        .505300       1.522998      16.355206
        .507300       1.522956      16.130905
        .509300       1.522914      15.587696
        .511300       1.522872      15.036860
        .513300       1.522830      14.533325
        .515300       1.522788      14.222048
        .517300       1.522746      13.683418
        .519300       1.522704      13.340099
        .521300       1.522662      13.015089
        .523300       1.522620      12.645832
        .525300       1.522578      12.264366
        .527300       1.522536      11.930202
        .529300       1.522494      11.528900
        .531300       1.522452      11.364107
        .533300       1.522410      11.234407
        .535300       1.522368      10.872778
        .537300       1.522326      10.747658
        .539300       1.522284      10.482157
        .541300       1.522241      10.323467
        .543300       1.522200      10.103743
        .545300       1.522158       9.980148
        .547300       1.522116       9.890121
        .549300       1.522074       9.877914
        .551300       1.522032       9.809252
        .553300       1.521989       9.862658
        .555300       1.521948       9.626148
        .557300       1.521905       9.378958
        .559300       1.521863       9.401846
        .561300       1.521821       9.296560
        .563300       1.521779       9.171440
        .565300       1.521737       9.087517
        .567300       1.521695       9.069208
        .569300       1.521653       9.069208
        .571300       1.521611       8.966974
        .573300       1.521569       8.889154
        .575300       1.521527       8.983759
        .577300       1.521485       8.857113
        .579300       1.521443       8.696896
        .581300       1.521401       8.778530
        .583300       1.521359       8.722836
        .585300       1.521317       8.449707
        .587300       1.521275       8.542784
        .589300       1.521233       8.437500
        .591300       1.521191       8.437500
        .593300       1.521149       8.222353
        .595300       1.521107       8.197939
        .597300       1.521065       8.105625
        .599300       1.521023       8.048405
        .601100       1.520985       8.127748
        .602700       1.520952       7.979740
        .604300       1.520918       7.938542
        .605900       1.520884       7.737129
        .607500       1.520851       7.692879
        .609100       1.520817       7.608956
        .610700       1.520784       7.702034
        .612300       1.520750       7.517405
        .613900       1.520716       7.486887
        .615500       1.520683       7.434245
        .617100       1.520649       7.544107
        .618700       1.520615       7.454844
        .620300       1.520582       7.402965
        .621900       1.520548       7.442637
        .623500       1.520515       7.297680
        .625100       1.520481       7.228253
        .626700       1.520447       7.322094
        .628300       1.520414       7.198499
        .629900       1.520380       7.160353
        .631700       1.520342       7.057357
        .633700       1.520300       6.984878
        .635700       1.520258       7.079482
        .637700       1.520216       6.849839
        .639700       1.520174       6.801774
        .641700       1.520132       6.711748
        .643700       1.520090       6.750658
        .645700       1.520048       6.633929
        .647700       1.520006       6.585102
        .649700       1.519964       6.574421
        .651700       1.519922       6.432515
        .653700       1.519880       6.301291
        .655700       1.519838       6.435567
        .657700       1.519796       6.134972
        .659700       1.519754       6.171593
        .661700       1.519712       6.096826
        .663700       1.519670       6.066308
        .665700       1.519628       5.813014
        .667700       1.519586       5.944239
        .670200       1.519534       5.732906
        .673200       1.519470       5.608549
        .676200       1.519408       5.517760
        .679200       1.519345       5.352966
        .682200       1.519282       5.303376
        .685200       1.519218       5.362885
        .688200       1.519155       5.285066
        .691200       1.519092       5.001255
        .694200       1.519029       4.985996
        .697200       1.518966       4.895207
        .700200       1.518903       4.900548
        .702000       1.518865       4.680824
        .704000       1.518824       4.726600
        .706000       1.518781       4.784582
        .708000       1.518739       4.619789
        .710000       1.518697       4.651070
        .712000       1.518655       4.504586
        .714000       1.518613       4.545022
        .716000       1.518571       4.474070
        .718000       1.518529       4.519082
        .720000       1.518487       4.470255
        .722000       1.518445       4.477121
        .724000       1.518403       4.500772
        .726000       1.518361       4.363444
        .728000       1.518319       4.418375
        .730000       1.518277       4.458048
        .732000       1.518235       4.361156
        .734000       1.518193       4.381755
        .736000       1.518151       4.170423
        .738000       1.518109       4.262737
        .740000       1.518067       4.348186
        .742000       1.518025       4.258160
        .744000       1.517983       4.323009
        .746000       1.517941       4.200939
        .748000       1.517899       4.205517
        .750500       1.517847       4.231457
        .753500       1.517784       4.043013
        .756500       1.517721       4.139905
        .759500       1.517658       4.181485
        .762500       1.517594       4.136090
        .765500       1.517532       3.988081
        .768500       1.517468       3.956801
        .771500       1.517405       4.162793
        .774500       1.517342       4.170423
        .777500       1.517279       4.034620
        .781000       1.517206       4.046064
        .785000       1.517122       4.290203
        .789000       1.517038       4.104047
        .793000       1.516954       4.203228
        .797000       1.516870       4.252056
        .801500       1.516775       4.296307
        .806500       1.516670       4.569436
        .811500       1.516565       4.500009
        .816500       1.516460       4.551126
        .822000       1.516345       4.784582
        .828000       1.516218       4.876134
        .835000       1.516071       4.927251
        .843000       1.515903       4.944035
        .851000       1.515735       4.883000
        .859000       1.515567       5.004307
        .871000       1.515315       4.923436
        .883000       1.515063       5.486480
        .894000       1.514832       5.248445
        .904000       1.514622       5.394928
        .914000       1.514412       5.910669
        .924000       1.514202       6.208213
        .933000       1.514013       6.194481
        .941000       1.513844       6.926895
        .949000       1.513676       8.254396
        .957000       1.513508       7.380076
        .964000       1.513361       7.256482
        .970000       1.513235       7.273267
        .976000       1.513109       7.242749
        .982000       1.512983       7.071853
        .988000       1.512857       7.177137
        .994000       1.512731       6.998610
       1.000000       1.512605       7.059646
       1.006000       1.512479       6.936050
       1.012000       1.512353       7.077956
       1.018000       1.512227       6.984878
       1.023500       1.512111       6.943680
       1.028500       1.512006       7.137465
       1.033500       1.511901       6.917740
       1.038500       1.511796       6.871964
       1.043500       1.511691       6.951309
       1.048500       1.511586       6.907059
       1.053500       1.511481       7.071853
       1.058500       1.511376       6.939102
       1.063500       1.511271       6.693438
       1.068500       1.511166       6.841447
       1.073500       1.511061       6.723955
       1.078500       1.510956       6.687335
       1.083500       1.510851       6.655292
       1.088500       1.510746       6.502705
       1.093500       1.510641       6.467610
       1.098500       1.510536       6.218894
       1.103500       1.510431       6.183800
       1.108500       1.510326       6.269248
       1.113500       1.510221       6.020532
       1.118500       1.510116       6.013665
       1.123500       1.510010       5.958735
       1.128500       1.509905       6.083093
       1.133500       1.509800       6.217368
       1.138500       1.509695       6.701830
       1.143500       1.509590       7.343456
       1.148500       1.509485       8.426819
       1.153500       1.509380       8.464966
       1.158500       1.509275       7.938542
       1.163500       1.509170       7.264874
       1.168500       1.509065       6.682757
       1.173500       1.508960       6.504230
       1.178500       1.508855       6.093011
       1.183500       1.508750       5.971704
       1.188500       1.508645       5.665769
       1.193500       1.508540       5.684842
       1.198500       1.508435       5.572691
       1.203500       1.508330       5.204195
       1.208500       1.508225       5.039401
       1.213500       1.508120       4.897496
       1.218500       1.508015       4.762457
       1.223500       1.507910       4.536630
       1.228500       1.507805       4.547311
       1.233500       1.507699       4.392436
       1.238500       1.507595       4.317668
       1.243500       1.507489       4.172711
       1.248500       1.507384       4.107099
       1.253500       1.507279       4.023939
       1.258500       1.507174       4.030043
       1.263500       1.507069       4.054457
       1.268500       1.506964       4.141431
       1.273500       1.506859       4.680824
       1.278500       1.506754       4.764746
       1.283500       1.506649       4.236034
       1.288500       1.506544       4.097944
       1.293500       1.506439       4.380229
       1.298500       1.506334       4.597664
       1.303500       1.506229       4.474070
       1.308500       1.506124       4.685402
       1.313500       1.506019       4.913518
       1.318500       1.505914       5.404846
       1.323500       1.505809       5.829036
       1.328500       1.505704       6.606463
       1.333500       1.505599       7.128309
       1.338500       1.505494       7.715004
       1.343500       1.505389       8.359680
       1.348500       1.505284       8.944086
       1.353500       1.505179       9.401083
       1.358500       1.505074      10.410442
       1.363500       1.504968      11.563995
       1.368500       1.504863      13.340099
       1.373500       1.504758      15.982895
       1.378500       1.504653      20.768005
       1.383500       1.504548      42.224701
       1.388500       1.504443     102.774803
       1.393500       1.504338      80.694763
       1.398500       1.504233      54.681847
       1.403500       1.504128      59.820953
       1.408500       1.504023      63.910271
       1.413500       1.503918      61.920547
       1.418500       1.503813      54.468224
       1.423500       1.503708      46.332329
       1.428500       1.503603      39.542229
       1.433500       1.503498      34.632004
       1.438500       1.503393      31.226273
       1.443500       1.503288      28.465984
       1.448500       1.503183      26.569336
       1.453500       1.503078      26.837887
       1.458500       1.502973      27.733570
       1.463500       1.502868      27.524529
       1.468500       1.502763      25.574474
       1.473500       1.502658      22.507488
       1.478500       1.502553      19.586987
       1.483500       1.502447      17.710175
       1.488500       1.502342      15.982895
       1.493500       1.502237      15.219963
       1.498500       1.502132      13.810064
       1.503500       1.502027      13.050184
       1.508500       1.501922      12.586323
       1.513500       1.501817      11.904263
       1.518500       1.501712      11.362581
       1.523500       1.501607      10.599649
       1.528500       1.501502      10.360088
       1.534000       1.501387       9.903854
       1.540000       1.501261       9.270622
       1.546000       1.501135       9.066156
       1.552000       1.501008       8.693844
       1.558000       1.500882       8.164370
       1.564000       1.500756       7.755439
       1.570500       1.500620       7.669991
       1.577500       1.500473       7.323620
       1.584500       1.500326       7.151197
       1.591500       1.500179       6.881120
       1.598500       1.500031       6.632403
       1.605500       1.499884       6.557636
       1.612500       1.499737       6.351645
       1.619500       1.499590       6.353170
       1.626500       1.499443       6.313498
       1.633500       1.499296       6.200584
       1.640500       1.499149       6.188377
       1.647500       1.499002       6.203635
       1.654500       1.498855       6.160912
       1.661500       1.498708       6.296714
       1.668500       1.498561       6.472188
       1.676000       1.498403       6.945206
       1.684000       1.498235       7.090162
       1.692000       1.498067       6.936050
       1.700000       1.497899       7.183240
       1.708000       1.497731       7.790534
       1.716000       1.497563       8.602293
       1.724000       1.497395       9.131004
       1.732000       1.497227       9.702440
       1.740000       1.497059      10.663734
       1.748000       1.496891      11.521271
       1.756000       1.496723      12.464254
       1.764000       1.496555      13.483530
       1.772000       1.496387      14.707273
       1.780000       1.496218      15.624317
       1.788000       1.496050      16.083603
       1.796000       1.495882      17.127293
       1.805000       1.495693      18.454796
       1.815000       1.495483      19.382519
       1.825000       1.495273      20.969418
       1.835000       1.495063      22.150436
       1.845000       1.494853      24.823750
       1.855000       1.494643      28.379009
       1.865000       1.494433      37.113052
       1.875000       1.494223      61.175926
       1.885000       1.494013     128.510178
       1.895000       1.493803     291.163422
       1.905000       1.493592     362.236359
       1.915000       1.493382     286.947571
       1.925000       1.493172     195.986603
       1.935000       1.492962     150.660919
       1.945000       1.492752     131.523163
       1.955000       1.492542     119.221146
       1.965000       1.492332     108.169586
       1.975000       1.492122      93.933167
       1.985000       1.491912      81.811707
       1.995000       1.491702      70.361618
       2.005000       1.491492      59.802643
       2.015000       1.491282      52.924049
       2.025000       1.491071      46.509323
       2.035000       1.490861      42.749596
       2.045000       1.490651      40.619492
       2.055000       1.490441      39.142456
       2.065000       1.490231      39.423218
       2.075000       1.490021      39.264526
       2.085000       1.489811      40.894150
       2.095000       1.489601      41.263405
       2.105000       1.489391      40.314316
       2.115000       1.489181      40.643906
       2.125000       1.488971      41.522804
       2.135000       1.488761      40.537094
       2.145000       1.488550      39.929802
       2.155000       1.488340      39.481194
       2.165000       1.488130      39.722282
       2.175000       1.487920      40.277695
       2.185000       1.487710      39.792473
       2.195000       1.487500      40.271591
       2.205000       1.487290      41.614357
       2.215000       1.487080      43.280602
       2.225000       1.486870      45.929497
       2.235000       1.486660      49.377953
       2.245000       1.486449      53.632050
       2.255000       1.486240      57.385681
       2.265000       1.486029      66.791107
       2.275000       1.485819      88.025024
       2.285000       1.485609     145.659134
       2.295000       1.485399     200.964569
       2.305000       1.485189     246.147339
       2.315000       1.484979     304.834961
       2.325000       1.484769     192.056625
       2.335000       1.484559     127.938522
       2.345000       1.484349     112.569962
       2.355000       1.484139     116.624969
       2.365000       1.483929     126.842911
       2.375000       1.483719     170.215515
       2.386000       1.483487     210.158325
       2.400000       1.483193     192.842621
       2.418000       1.482815     184.839783
       2.440000       1.482353     219.852264
       2.466000       1.481807     263.629791
       2.496000       1.481176     286.685608
       2.528000       1.480504     325.699524
       2.560000       1.479832     371.858856
       2.592000       1.479160     425.544617
       2.624000       1.478487     489.567444
       2.656000       1.477815     652.387451
       2.688000       1.477143    1478.396240
       2.720000       1.476471    9414.464844
       2.752000       1.475798   12935.755859
       2.784000       1.475126   12870.727539
       2.816000       1.474454   12806.608398
       2.848000       1.473782    9846.619141
       2.880000       1.473109   12688.367188
       2.912000       1.472437   12625.808594
       2.944000       1.471765   12563.416016
       2.976000       1.471092    9553.371094
