Revised values.  Major change near 0.8 micrometers!
after Khare, B.N., W.R. Thompson, L. Cheng, C. Chyba and C. Sagan, 1993. 
	Production and optical constants of ice tholin form charged particle
	irradiation of (1:6) C2H6/H2O at 77k. Icarus, 103, 290-300.
Khare estimates solid density is 1.38 g/cc
     Wavelength        Frequency         Real          Imaginary
    (micrometers)       (cm-1)           Index          Index
     0.060199998       166112.96      0.91299999      0.47000000
     0.070400000       142045.46       1.0268824      0.62199998
     0.080499999       124223.60       1.1950001      0.74100000
     0.081600003       122549.02       1.2256844      0.75599998
     0.082699999       120918.99       1.2563685      0.77100003
     0.083800003       119331.74       1.2870528      0.78100002
     0.084899999       117785.63       1.3180000      0.77499998
     0.086099997       116144.02       1.3519999      0.76599997
     0.087300003       114547.53       1.3822632      0.75700003
     0.088600002       112866.81       1.4110000      0.74599999
     0.089800000       111358.57       1.4375263      0.73299998
     0.091200002       109649.12       1.4657647      0.72000003
     0.092500001       108108.11       1.4894706      0.70599997
     0.093900003       106496.27       1.5150000      0.69000000
     0.095399998       104821.80       1.5312162      0.67400002
     0.096900001       103199.17       1.5474324      0.65799999
     0.098399997       101626.02       1.5604999      0.64300001
      0.10000000       99999.999       1.5820000      0.65499997
      0.10200000       98039.218       1.6790000      0.66299999
      0.10300000       97087.379       1.7320000      0.64800000
      0.10500000       95238.098       1.7730000      0.50099999
      0.10700000       93457.943       1.7340000      0.36700001
      0.10900000       91743.121       1.6335003      0.29800001
      0.11100000       90090.089       1.5416666      0.32699999
      0.11300000       88495.577       1.4710000      0.41800001
      0.11500000       86956.520       1.4900000      0.47600001
      0.11900000       84033.612       1.5576668      0.55000001
      0.12200000       81967.212       1.6240000      0.56900001
      0.12400000       80645.163       1.6844998      0.56699997
      0.12700000       78740.155       1.7520001      0.50599998
      0.12899999       77519.384       1.7800000      0.45699999
      0.13200000       75757.576       1.7972500      0.41100001
      0.13500001       74074.071       1.8098000      0.36500001
      0.13800000       72463.770       1.8200001      0.31000000
      0.14100000       70921.984       1.8016250      0.25400001
      0.14399999       69444.447       1.7832501      0.20999999
      0.14800000       67567.567       1.7552857      0.17700000
      0.15099999       66225.169       1.7317143      0.15899999
      0.15500000       64516.129       1.7037500      0.14500000
      0.15899999       62893.084       1.6792501      0.13400000
      0.16300000       61349.692       1.6614445      0.13500001
      0.16800000       59523.810       1.6475555      0.13200000
      0.17200001       58139.533       1.6316000      0.11900000
      0.17700000       56497.175       1.6122000      0.13000000
      0.18200000       54945.056       1.6027000      0.13900000
      0.18799999       53191.491       1.5955000      0.14900000
      0.19400001       51546.390       1.5982500      0.16300000
      0.20000000       49999.999       1.6067500      0.17100000
      0.20700000       48309.178       1.6288182      0.18400000
      0.21400000       46728.972       1.6600000      0.17900001
      0.22100000       45248.869       1.6810000      0.13500001
      0.23000000       43478.260       1.6720001     0.096500002
      0.24800000       40322.581       1.6470000     0.069100000
      0.29899999       33444.817       1.6151935     0.035300002
      0.33600000       29761.905       1.5983847     0.016500000
      0.37900001       26385.224       1.5803334    0.0066999998
      0.39199999       25510.205       1.5760000    0.0059000002
      0.42199999       23696.683       1.5670312    0.0027999999
      0.46599999       21459.228       1.5574062    0.0021200001
      0.60000002       16666.666       1.5439445    0.0015000000
      0.64999998       15384.616       1.5411667    0.0012000001
      0.69999999       14285.715       1.5386092    0.0011000000
      0.75000000       13333.333       1.5368325    0.0011000000
      0.80000001       12500.000       1.5350558    0.0011000000
      0.85000002       11764.706       1.5332791    0.0012000001
      0.89999998       11111.111       1.5318418    0.0013000000
      0.94999999       10526.316       1.5312768    0.0014000000
       1.0000000       10000.000       1.5307118    0.0015000000
       1.0500000       9523.8100       1.5301469    0.0016000000
       1.1000000       9090.9089       1.5295819    0.0016000000
       1.1500000       8695.6524       1.5290169    0.0017000000
       1.2000000       8333.3330       1.5284520    0.0018000000
       1.2500000       8000.0000       1.5280188    0.0019000000
       1.3000000       7692.3080       1.5281130    0.0020000001
       1.3500000       7407.4073       1.5282072    0.0020000001
       1.4000000       7142.8573       1.5283013    0.0020999999
       1.4500000       6896.5515       1.5283955    0.0022000000
       1.5000000       6666.6667       1.5284897    0.0022000000
       1.5500000       6451.6131       1.5285838    0.0023000001
       1.6000000       6249.9999       1.5286780    0.0024000001
       1.6500000       6060.6061       1.5287722    0.0024000001
       1.7000000       5882.3528       1.5288663    0.0024999999
       1.7500000       5714.2857       1.5289605    0.0024999999
       1.8000000       5555.5557       1.5288364    0.0026000000
       1.8500000       5405.4053       1.5285543    0.0026000000
       1.9000000       5263.1580       1.5282722    0.0027000001
       1.9500000       5128.2050       1.5279902    0.0027999999
       2.0000000       5000.0000       1.5277081    0.0027999999
       2.0500000       4878.0489       1.5274260    0.0027999999
       2.0999999       4761.9050       1.5271439    0.0027999999
       2.1500001       4651.1626       1.5268618    0.0027999999
       2.2000000       4545.4544       1.5265797    0.0029000000
       2.2500000       4444.4444       1.5262976    0.0029000000
       2.3000000       4347.8262       1.5260155    0.0029000000
       2.3499999       4255.3193       1.5257334    0.0029000000
       2.4000001       4166.6665       1.5254513    0.0030000000
       2.4500000       4081.6326       1.5251692    0.0030000000
       2.5000000       4000.0000       1.5248529    0.0027000001
       2.6320000       3799.3921       1.5235052   0.00050500000
       2.7030001       3699.5930       1.5213093   0.00018600000
       2.7780001       3599.7119       1.5193545    0.0015900000
       2.8570001       3500.1749       1.5190001    0.0049600000
       2.9059999       3441.1563       1.5193553    0.0066600000
       2.9250000       3418.8035       1.5201053    0.0068399999
       2.9410000       3400.2040       1.5207368    0.0072200000
       3.0300000       3300.3301       1.5207958    0.0055000000
       3.1250000       3200.0000       1.5186251    0.0049399999
       3.1740000       3150.5986       1.5167875    0.0047900002
       3.2260001       3099.8139       1.5138983    0.0048300000
       3.2890000       3040.4378       1.5056885    0.0065299999
       3.3110001       3020.2355       1.5017213    0.0077000000
       3.3329999       3000.3001       1.4903334     0.011600000
       3.3599999       2976.1906       1.4936667     0.045600001
       3.3770001       2961.2081       1.5122224     0.062799998
       3.3940001       2946.3759       1.5257368     0.044500001
       3.4089999       2933.4116       1.5296666     0.052700002
       3.4250000       2919.7081       1.5430000     0.047499999
       3.4480000       2900.2321       1.5433705     0.029500000
       3.4549999       2894.3561       1.5448964     0.028400000
       3.4770000       2876.0426       1.5496921     0.033100002
       3.5100000       2849.0029       1.5527161     0.015200000
       3.5209999       2840.1023       1.5509507     0.012000000
       3.5460000       2820.0790       1.5469383    0.0069400002
       3.5710001       2800.3360       1.5429259    0.0048300000
       3.8460000       2600.1040       1.5307924    0.0029500001
       4.1669998       2399.8081       1.5266596    0.0028700000
       4.5450001       2200.2200       1.5243536    0.0035000001
       5.0000000       2000.0000       1.5205530    0.0041999999
       5.5560002       1799.8559       1.5063434    0.0055800001
       5.7140002       1750.0874       1.5036709     0.022000000
       5.8140001       1719.9862       1.5085678     0.033300001
       5.8480000       1709.9863       1.5150000     0.040500000
       5.8820000       1700.1020       1.5241071     0.039299998
       5.9879999       1670.0067       1.5340000     0.021800000
       6.0609999       1649.8928       1.5303390     0.015300000
       6.2500000       1600.0000       1.5270851     0.016000001
       6.4520001       1549.9070       1.5223582    0.0071299998
       6.5790000       1519.9878       1.5137872    0.0068700002
       6.6669998       1499.9250       1.5068807    0.0092900004
       6.7570000       1479.9467       1.4961468     0.017600000
       6.8030000       1469.9397       1.5010933     0.037599999
       6.8490000       1460.0672       1.5127467     0.049500000
       6.8629999       1457.0888       1.5150348     0.050799999
       6.8870001       1452.0110       1.5187913     0.041000001
       6.8969998       1449.9058       1.5203565     0.041299999
       6.9930000       1430.0014       1.5291334     0.024100000
       7.0419998       1420.0512       1.5258667     0.023600001
       7.1430001       1399.9720       1.5182846     0.022399999
       7.1939998       1390.0473       1.5141383     0.026500000
       7.2570000       1377.9799       1.5222210     0.045699999
       7.3530002       1359.9891       1.5352273     0.026300000
       7.4070001       1350.0742       1.5327727     0.026100000
       7.5190001       1329.9641       1.5303406     0.023600001
       7.6919999       1300.0520       1.5275979     0.023100000
       7.8740001       1270.0025       1.5267105     0.026000001
       7.9489999       1258.0199       1.5286842     0.029300001
       8.0000000       1250.0000       1.5300094     0.028300000
       8.3330002       1200.0480       1.5325471     0.026000001
       8.5469999       1170.0012       1.5330000     0.024300000
       8.6210003       1159.9582       1.5341833     0.024900001
       8.6960001       1149.9540       1.5343658     0.021800000
       8.8500004       1129.9435       1.5314031     0.022100000
       8.9289999       1119.9463       1.5305759     0.021400001
       9.5200005       1050.4201       1.5317447     0.030099999
       10.000000       1000.0000       1.5353333     0.025800001
       10.300000       970.87377       1.5365349     0.028999999
       10.580000       945.17959       1.5380000     0.025900001
       11.110000       900.09004       1.5380000     0.026100000
       11.770000       849.61764       1.5386591     0.025300000
       12.050000       829.87551       1.5379167     0.023700001
       12.360000       809.06151       1.5366400     0.027100001
       12.500000       800.00000       1.5377600     0.028999999
       13.120000       762.19513       1.5400000     0.025800001
       13.720000       728.86296       1.5396065     0.026000001
       13.910000       718.90727       1.5392951     0.026500000
       14.140000       707.21356       1.5391177     0.026900001
       14.290000       699.79006       1.5394706     0.027700000
       14.470000       691.08499       1.5398941     0.028400000
       16.670000       599.88002       1.5420001     0.028600000
       18.180000       550.05500       1.5429600     0.030300001
       20.000000       500.00000       1.5443765     0.032800000
       22.219999       450.04502       1.5468358     0.035599999
       25.000000       400.00000       1.5512992     0.039900001
       28.570000       350.01750       1.5584800     0.043000001
       30.299999       330.03301       1.5613211     0.042500000
       33.330002       300.02999       1.5659115     0.041600000
       40.000000       250.00000       1.5760000     0.045100000
