Data created using the Lorentz line parameters in J.R. Aronson and P.F.
Strong, Optical constants of minerals and rocks, Applied Optics, 14, 
2914-2920, 1975.  These could be recalculated at any spectral resolution.
Range of validity is given as 1700-230 inverse centimeters.  Be sure to
check the reference for a description of the sample.

high frq. dielec. const=  3.236
Lorentz line parameters
center  width  strength
1536.4  0.0559  0.0520
1077.2  0.0324  0.1510
1006.8  0.0326  0.0320
 951.3  0.0386  0.1130
 904.5  0.0532  0.5450
 755.9  0.0956  0.0800
 634.8  0.0469  0.0660
 542.1  0.0814  0.2690
 507.3  0.0441  0.3450
 480.0  0.0599  0.4390
 433.6  0.0236  0.0390
 401.5  0.0875  0.7540
 333.1  0.0579  0.5840
 297.9  0.1063  0.5720
 186.3  0.3096  6.1260

 wave.    freq.   calc.        real       imag.
(micron)  (cm-1)  refl.       index       index
43.4783   230.0  0.2924       1.999       1.519
43.1034   232.0  0.2775       1.999       1.440
42.7350   234.0  0.2636       2.004       1.364
42.3729   236.0  0.2508       2.016       1.291
42.0168   238.0  0.2395       2.033       1.222
41.6667   240.0  0.2298       2.054       1.157
41.3223   242.0  0.2216       2.080       1.096
40.9836   244.0  0.2151       2.110       1.040
40.6504   246.0  0.2102       2.143      0.9878
40.3226   248.0  0.2069       2.179      0.9401
40.0000   250.0  0.2049       2.217      0.8970
39.6825   252.0  0.2042       2.257      0.8582
39.3701   254.0  0.2046       2.299      0.8238
39.0625   256.0  0.2060       2.342      0.7936
38.7597   258.0  0.2083       2.387      0.7676
38.4615   260.0  0.2114       2.433      0.7458
38.1679   262.0  0.2151       2.479      0.7281
37.8788   264.0  0.2195       2.527      0.7146
37.5940   266.0  0.2243       2.575      0.7055
37.3134   268.0  0.2297       2.624      0.7008
37.0370   270.0  0.2354       2.674      0.7008
36.7647   272.0  0.2416       2.724      0.7058
36.4964   274.0  0.2481       2.774      0.7164
36.2319   276.0  0.2549       2.824      0.7330
35.9712   278.0  0.2621       2.873      0.7563
35.7143   280.0  0.2694       2.921      0.7869
35.4610   282.0  0.2769       2.965      0.8255
35.2113   284.0  0.2845       3.004      0.8726
34.9650   286.0  0.2919       3.036      0.9281
34.7222   288.0  0.2990       3.057      0.9915
34.4828   290.0  0.3053       3.065       1.061
34.2466   292.0  0.3106       3.056       1.132
34.0136   294.0  0.3143       3.029       1.199
33.7838   296.0  0.3159       2.984       1.256
33.5570   298.0  0.3151       2.925       1.295
33.3333   300.0  0.3117       2.860       1.312
33.1126   302.0  0.3061       2.798       1.305
32.8947   304.0  0.2990       2.748       1.278
32.6797   306.0  0.2915       2.716       1.236
32.4675   308.0  0.2851       2.705       1.186
32.2581   310.0  0.2808       2.717       1.138
32.0513   312.0  0.2794       2.750       1.097
31.8471   314.0  0.2813       2.801       1.068
31.6456   316.0  0.2865       2.867       1.058
31.4465   318.0  0.2947       2.943       1.069
31.2500   320.0  0.3057       3.026       1.106
31.0559   322.0  0.3191       3.110       1.174
30.8642   324.0  0.3347       3.186       1.278
30.6748   326.0  0.3521       3.239       1.423
30.4878   328.0  0.3703       3.250       1.607
30.3030   330.0  0.3881       3.193       1.815
30.1205   332.0  0.4034       3.050       2.012
29.9401   334.0  0.4136       2.831       2.153
29.7619   336.0  0.4161       2.571       2.205
29.5858   338.0  0.4093       2.319       2.165
29.4118   340.0  0.3928       2.108       2.056
29.2398   342.0  0.3676       1.950       1.906
29.0698   344.0  0.3359       1.847       1.738
28.9017   346.0  0.3009       1.793       1.568
28.7356   348.0  0.2665       1.778       1.407
28.5714   350.0  0.2365       1.795       1.262
28.4091   352.0  0.2132       1.835       1.136
28.2486   354.0  0.1972       1.892       1.031
28.0899   356.0  0.1881       1.958      0.9467
27.9330   358.0  0.1843       2.029      0.8798
27.7778   360.0  0.1845       2.103      0.8284
27.6243   362.0  0.1875       2.177      0.7904
27.4725   364.0  0.1925       2.250      0.7638
27.3224   366.0  0.1989       2.322      0.7472
27.1739   368.0  0.2062       2.393      0.7397
27.0270   370.0  0.2142       2.462      0.7403
26.8817   372.0  0.2228       2.529      0.7490
26.7380   374.0  0.2317       2.595      0.7654
26.5957   376.0  0.2410       2.659      0.7898
26.4550   378.0  0.2506       2.721      0.8224
26.3158   380.0  0.2604       2.781      0.8639
26.1780   382.0  0.2706       2.836      0.9147
26.0417   384.0  0.2809       2.886      0.9756
25.9067   386.0  0.2915       2.930       1.047
25.7732   388.0  0.3021       2.964       1.129
25.6410   390.0  0.3128       2.986       1.222
25.5102   392.0  0.3233       2.992       1.323
25.3807   394.0  0.3334       2.977       1.430
25.2525   396.0  0.3427       2.940       1.539
25.1256   398.0  0.3509       2.878       1.642
25.0000   400.0  0.3576       2.792       1.733
24.8756   402.0  0.3621       2.686       1.804
24.7525   404.0  0.3640       2.565       1.850
24.6305   406.0  0.3630       2.438       1.868
24.5098   408.0  0.3586       2.313       1.857
24.3902   410.0  0.3507       2.196       1.821
24.2718   412.0  0.3394       2.094       1.763
24.1546   414.0  0.3250       2.010       1.689
24.0385   416.0  0.3079       1.946       1.603
23.9234   418.0  0.2892       1.903       1.510
23.8095   420.0  0.2699       1.882       1.416
23.6967   422.0  0.2519       1.884       1.325
23.5849   424.0  0.2369       1.907       1.243
23.4742   426.0  0.2270       1.950       1.178
23.3645   428.0  0.2239       2.008       1.141
23.2558   430.0  0.2283       2.064       1.145
23.1481   432.0  0.2369       2.081       1.190
23.0415   434.0  0.2389       2.022       1.222
22.9358   436.0  0.2253       1.937       1.173
22.8311   438.0  0.2041       1.903       1.066
22.7273   440.0  0.1878       1.926      0.9610
22.6244   442.0  0.1795       1.981      0.8786
22.5225   444.0  0.1776       2.048      0.8191
22.4215   446.0  0.1800       2.121      0.7781
22.3214   448.0  0.1850       2.195      0.7515
22.2222   450.0  0.1919       2.270      0.7369
22.1239   452.0  0.2000       2.345      0.7325
22.0264   454.0  0.2091       2.419      0.7375
21.9298   456.0  0.2189       2.493      0.7517
21.8341   458.0  0.2293       2.566      0.7754
21.7391   460.0  0.2404       2.639      0.8090
21.6450   462.0  0.2520       2.709      0.8535
21.5517   464.0  0.2640       2.777      0.9099
21.4592   466.0  0.2766       2.839      0.9794
21.3675   468.0  0.2895       2.893       1.063
21.2766   470.0  0.3025       2.935       1.160
21.1864   472.0  0.3154       2.960       1.270
21.0970   474.0  0.3278       2.961       1.389
21.0084   476.0  0.3389       2.934       1.509
20.9205   478.0  0.3481       2.877       1.619
20.8333   480.0  0.3546       2.796       1.709
20.7469   482.0  0.3577       2.698       1.768
20.6612   484.0  0.3570       2.599       1.793
20.5761   486.0  0.3530       2.512       1.788
20.4918   488.0  0.3466       2.449       1.760
20.4082   490.0  0.3397       2.416       1.723
20.3252   492.0  0.3344       2.413       1.689
20.2429   494.0  0.3326       2.437       1.672
20.1613   496.0  0.3358       2.478       1.681
20.0803   498.0  0.3442       2.526       1.724
20.0000   500.0  0.3575       2.566       1.805
19.9203   502.0  0.3748       2.580       1.921
19.8413   504.0  0.3946       2.550       2.060
19.7628   506.0  0.4148       2.465       2.201
19.6850   508.0  0.4334       2.328       2.315
19.6078   510.0  0.4482       2.157       2.381
19.5312   512.0  0.4576       1.978       2.392
19.4553   514.0  0.4610       1.815       2.355
19.3798   516.0  0.4584       1.680       2.286
19.3050   518.0  0.4504       1.577       2.199
19.2308   520.0  0.4380       1.504       2.106
19.1571   522.0  0.4228       1.458       2.015
19.0840   524.0  0.4066       1.432       1.934
19.0114   526.0  0.3908       1.423       1.864
18.9394   528.0  0.3771       1.425       1.808
18.8679   530.0  0.3663       1.432       1.768
18.7970   532.0  0.3589       1.440       1.741
18.7266   534.0  0.3550       1.444       1.727
18.6567   536.0  0.3541       1.442       1.723
18.5874   538.0  0.3557       1.431       1.725
18.5185   540.0  0.3591       1.411       1.730
18.4502   542.0  0.3635       1.381       1.735
18.3824   544.0  0.3684       1.342       1.736
18.3150   546.0  0.3730       1.296       1.731
18.2482   548.0  0.3769       1.246       1.719
18.1818   550.0  0.3797       1.194       1.699
18.1159   552.0  0.3810       1.142       1.671
18.0505   554.0  0.3806       1.092       1.636
17.9856   556.0  0.3783       1.045       1.594
17.9211   558.0  0.3740       1.002       1.547
17.8571   560.0  0.3676      0.9634       1.496
17.7936   562.0  0.3590      0.9299       1.442
17.7305   564.0  0.3482      0.9013       1.384
17.6678   566.0  0.3353      0.8779       1.325
17.6056   568.0  0.3203      0.8594       1.265
17.5439   570.0  0.3033      0.8459       1.204
17.4825   572.0  0.2845      0.8373       1.142
17.4216   574.0  0.2641      0.8335       1.081
17.3611   576.0  0.2424      0.8346       1.020
17.3010   578.0  0.2198      0.8405      0.9600
17.2414   580.0  0.1969      0.8511      0.9014
17.1821   582.0  0.1743      0.8664      0.8447
17.1233   584.0  0.1525      0.8860      0.7905
17.0648   586.0  0.1323      0.9097      0.7393
17.0068   588.0  0.1140      0.9370      0.6916
16.9492   590.0  0.0981      0.9674      0.6478
16.8919   592.0  0.0846       1.000      0.6081
16.8350   594.0  0.0737       1.035      0.5727
16.7785   596.0  0.0651       1.071      0.5414
16.7224   598.0  0.0586       1.108      0.5142
16.6667   600.0  0.0541       1.145      0.4910
16.6113   602.0  0.0513       1.183      0.4715
16.5563   604.0  0.0499       1.220      0.4558
16.5017   606.0  0.0497       1.258      0.4435
16.4474   608.0  0.0506       1.295      0.4348
16.3934   610.0  0.0524       1.331      0.4297
16.3399   612.0  0.0550       1.367      0.4283
16.2866   614.0  0.0582       1.401      0.4308
16.2338   616.0  0.0622       1.435      0.4374
16.1812   618.0  0.0666       1.467      0.4485
16.1290   620.0  0.0716       1.496      0.4645
16.0772   622.0  0.0769       1.521      0.4855
16.0256   624.0  0.0825       1.541      0.5116
15.9744   626.0  0.0882       1.554      0.5422
15.9236   628.0  0.0935       1.558      0.5759
15.8730   630.0  0.0982       1.551      0.6101
15.8228   632.0  0.1017       1.531      0.6412
15.7729   634.0  0.1034       1.500      0.6645
15.7233   636.0  0.1028       1.461      0.6760
15.6740   638.0  0.0998       1.419      0.6733
15.6250   640.0  0.0943       1.379      0.6565
15.5763   642.0  0.0871       1.344      0.6279
15.5280   644.0  0.0788       1.320      0.5911
15.4799   646.0  0.0704       1.305      0.5500
15.4321   648.0  0.0627       1.300      0.5081
15.3846   650.0  0.0562       1.303      0.4677
15.3374   652.0  0.0511       1.313      0.4304
15.2905   654.0  0.0475       1.327      0.3970
15.2439   656.0  0.0450       1.344      0.3675
15.1976   658.0  0.0437       1.364      0.3418
15.1515   660.0  0.0432       1.385      0.3196
15.1057   662.0  0.0434       1.406      0.3005
15.0602   664.0  0.0441       1.427      0.2840
15.0150   666.0  0.0452       1.449      0.2698
14.9701   668.0  0.0466       1.470      0.2576
14.9254   670.0  0.0482       1.491      0.2471
14.8810   672.0  0.0499       1.511      0.2381
14.8368   674.0  0.0518       1.530      0.2303
14.7929   676.0  0.0538       1.550      0.2236
14.7493   678.0  0.0558       1.568      0.2178
14.7059   680.0  0.0578       1.587      0.2129
14.6628   682.0  0.0599       1.605      0.2088
14.6199   684.0  0.0620       1.622      0.2053
14.5773   686.0  0.0641       1.639      0.2025
14.5349   688.0  0.0663       1.656      0.2003
14.4928   690.0  0.0684       1.672      0.1985
14.4509   692.0  0.0705       1.688      0.1973
14.4092   694.0  0.0726       1.703      0.1965
14.3678   696.0  0.0747       1.719      0.1962
14.3266   698.0  0.0768       1.734      0.1963
14.2857   700.0  0.0789       1.748      0.1969
14.2450   702.0  0.0809       1.763      0.1978
14.2045   704.0  0.0830       1.777      0.1992
14.1643   706.0  0.0850       1.791      0.2009
14.1243   708.0  0.0871       1.804      0.2031
14.0845   710.0  0.0891       1.818      0.2057
14.0449   712.0  0.0911       1.831      0.2086
14.0056   714.0  0.0930       1.843      0.2120
13.9665   716.0  0.0950       1.856      0.2159
13.9276   718.0  0.0969       1.868      0.2201
13.8889   720.0  0.0987       1.879      0.2248
13.8504   722.0  0.1006       1.890      0.2299
13.8122   724.0  0.1024       1.901      0.2354
13.7741   726.0  0.1041       1.911      0.2413
13.7363   728.0  0.1058       1.921      0.2475
13.6986   730.0  0.1074       1.930      0.2541
13.6612   732.0  0.1090       1.938      0.2610
13.6240   734.0  0.1104       1.945      0.2681
13.5870   736.0  0.1118       1.952      0.2754
13.5501   738.0  0.1130       1.958      0.2827
13.5135   740.0  0.1141       1.963      0.2900
13.4771   742.0  0.1150       1.967      0.2970
13.4409   744.0  0.1159       1.970      0.3037
13.4048   746.0  0.1165       1.972      0.3099
13.3690   748.0  0.1170       1.973      0.3154
13.3333   750.0  0.1174       1.973      0.3200
13.2979   752.0  0.1176       1.973      0.3237
13.2626   754.0  0.1177       1.973      0.3263
13.2275   756.0  0.1177       1.972      0.3277
13.1926   758.0  0.1176       1.971      0.3280
13.1579   760.0  0.1174       1.970      0.3270
13.1234   762.0  0.1173       1.970      0.3250
13.0890   764.0  0.1171       1.971      0.3219
13.0548   766.0  0.1170       1.972      0.3179
13.0208   768.0  0.1170       1.974      0.3131
12.9870   770.0  0.1171       1.977      0.3078
12.9534   772.0  0.1174       1.981      0.3020
12.9199   774.0  0.1177       1.986      0.2960
12.8866   776.0  0.1182       1.992      0.2899
12.8535   778.0  0.1189       1.999      0.2839
12.8205   780.0  0.1197       2.007      0.2780
12.7877   782.0  0.1207       2.016      0.2723
12.7551   784.0  0.1218       2.026      0.2670
12.7226   786.0  0.1231       2.037      0.2620
12.6904   788.0  0.1245       2.048      0.2575
12.6582   790.0  0.1260       2.060      0.2534
12.6263   792.0  0.1276       2.072      0.2498
12.5945   794.0  0.1293       2.085      0.2467
12.5628   796.0  0.1311       2.099      0.2441
12.5313   798.0  0.1330       2.112      0.2420
12.5000   800.0  0.1350       2.127      0.2405
12.4688   802.0  0.1370       2.141      0.2394
12.4378   804.0  0.1391       2.156      0.2388
12.4069   806.0  0.1413       2.172      0.2387
12.3762   808.0  0.1436       2.187      0.2390
12.3457   810.0  0.1459       2.203      0.2399
12.3153   812.0  0.1483       2.220      0.2413
12.2850   814.0  0.1508       2.237      0.2432
12.2549   816.0  0.1533       2.254      0.2455
12.2249   818.0  0.1559       2.271      0.2484
12.1951   820.0  0.1585       2.289      0.2518
12.1655   822.0  0.1612       2.307      0.2557
12.1359   824.0  0.1640       2.325      0.2601
12.1065   826.0  0.1668       2.344      0.2652
12.0773   828.0  0.1697       2.364      0.2708
12.0482   830.0  0.1727       2.383      0.2771
12.0192   832.0  0.1758       2.404      0.2840
11.9904   834.0  0.1790       2.424      0.2916
11.9617   836.0  0.1822       2.445      0.2999
11.9332   838.0  0.1855       2.467      0.3091
11.9048   840.0  0.1890       2.489      0.3191
11.8765   842.0  0.1925       2.512      0.3300
11.8483   844.0  0.1962       2.536      0.3419
11.8203   846.0  0.1999       2.560      0.3548
11.7925   848.0  0.2038       2.584      0.3690
11.7647   850.0  0.2078       2.610      0.3844
11.7371   852.0  0.2120       2.635      0.4012
11.7096   854.0  0.2163       2.662      0.4195
11.6822   856.0  0.2207       2.689      0.4396
11.6550   858.0  0.2254       2.717      0.4615
11.6279   860.0  0.2302       2.746      0.4854
11.6009   862.0  0.2351       2.775      0.5116
11.5741   864.0  0.2403       2.805      0.5403
11.5473   866.0  0.2457       2.835      0.5719
11.5207   868.0  0.2513       2.865      0.6065
11.4943   870.0  0.2572       2.896      0.6445
11.4679   872.0  0.2632       2.927      0.6863
11.4416   874.0  0.2696       2.957      0.7323
11.4155   876.0  0.2762       2.986      0.7828
11.3895   878.0  0.2830       3.014      0.8384
11.3636   880.0  0.2902       3.040      0.8993
11.3379   882.0  0.2976       3.063      0.9659
11.3122   884.0  0.3052       3.083       1.039
11.2867   886.0  0.3131       3.097       1.117
11.2613   888.0  0.3212       3.105       1.202
11.2360   890.0  0.3295       3.106       1.293
11.2108   892.0  0.3379       3.096       1.388
11.1857   894.0  0.3464       3.076       1.487
11.1607   896.0  0.3548       3.042       1.587
11.1359   898.0  0.3630       2.995       1.687
11.1111   900.0  0.3709       2.934       1.783
11.0865   902.0  0.3784       2.859       1.872
11.0619   904.0  0.3852       2.771       1.951
11.0375   906.0  0.3912       2.673       2.018
11.0132   908.0  0.3963       2.567       2.070
10.9890   910.0  0.4002       2.457       2.106
10.9649   912.0  0.4030       2.347       2.126
10.9409   914.0  0.4043       2.239       2.132
10.9170   916.0  0.4043       2.136       2.123
10.8932   918.0  0.4028       2.040       2.103
10.8696   920.0  0.3998       1.954       2.073
10.8460   922.0  0.3954       1.877       2.035
10.8225   924.0  0.3898       1.811       1.992
10.7991   926.0  0.3830       1.756       1.946
10.7759   928.0  0.3754       1.712       1.900
10.7527   930.0  0.3674       1.678       1.854
10.7296   932.0  0.3593       1.653       1.812
10.7066   934.0  0.3519       1.637       1.775
10.6838   936.0  0.3455       1.628       1.745
10.6610   938.0  0.3409       1.623       1.723
10.6383   940.0  0.3383       1.620       1.711
10.6157   942.0  0.3380       1.615       1.709
10.5932   944.0  0.3400       1.606       1.715
10.5708   946.0  0.3442       1.589       1.729
10.5485   948.0  0.3500       1.562       1.746
10.5263   950.0  0.3568       1.524       1.763
10.5042   952.0  0.3640       1.476       1.775
10.4822   954.0  0.3708       1.419       1.780
10.4603   956.0  0.3765       1.357       1.775
10.4384   958.0  0.3807       1.293       1.759
10.4167   960.0  0.3829       1.230       1.732
10.3950   962.0  0.3828       1.172       1.696
10.3734   964.0  0.3803       1.119       1.653
10.3520   966.0  0.3754       1.072       1.604
10.3306   968.0  0.3679       1.032       1.550
10.3093   970.0  0.3581      0.9999       1.494
10.2881   972.0  0.3459      0.9745       1.435
10.2669   974.0  0.3317      0.9559       1.377
10.2459   976.0  0.3155      0.9440       1.318
10.2249   978.0  0.2979      0.9386       1.261
10.2041   980.0  0.2791      0.9394       1.205
10.1833   982.0  0.2598      0.9462       1.151
10.1626   984.0  0.2406      0.9586       1.101
10.1420   986.0  0.2222      0.9761       1.056
10.1215   988.0  0.2053      0.9981       1.015
10.1010   990.0  0.1904       1.024      0.9811
10.0806   992.0  0.1782       1.051      0.9536
10.0604   994.0  0.1690       1.079      0.9335
10.0402   996.0  0.1626       1.106      0.9208
10.0200   998.0  0.1590       1.130      0.9152
10.0000  1000.0  0.1577       1.148      0.9153
 9.9800  1002.0  0.1580       1.159      0.9191
 9.9602  1004.0  0.1592       1.162      0.9238
 9.9404  1006.0  0.1602       1.156      0.9262
 9.9206  1008.0  0.1602       1.144      0.9231
 9.9010  1010.0  0.1583       1.129      0.9126
 9.8814  1012.0  0.1542       1.113      0.8937
 9.8619  1014.0  0.1476       1.100      0.8671
 9.8425  1016.0  0.1390       1.092      0.8344
 9.8232  1018.0  0.1288       1.090      0.7978
 9.8039  1020.0  0.1179       1.096      0.7595
 9.7847  1022.0  0.1072       1.109      0.7216
 9.7656  1024.0  0.0973       1.128      0.6856
 9.7466  1026.0  0.0888       1.152      0.6528
 9.7276  1028.0  0.0820       1.181      0.6238
 9.7087  1030.0  0.0769       1.214      0.5990
 9.6899  1032.0  0.0736       1.249      0.5787
 9.6712  1034.0  0.0719       1.287      0.5628
 9.6525  1036.0  0.0718       1.326      0.5512
 9.6339  1038.0  0.0729       1.366      0.5439
 9.6154  1040.0  0.0752       1.406      0.5409
 9.5969  1042.0  0.0786       1.448      0.5420
 9.5785  1044.0  0.0830       1.490      0.5474
 9.5602  1046.0  0.0883       1.532      0.5572
 9.5420  1048.0  0.0945       1.575      0.5716
 9.5238  1050.0  0.1015       1.618      0.5910
 9.5057  1052.0  0.1093       1.660      0.6158
 9.4877  1054.0  0.1180       1.702      0.6465
 9.4697  1056.0  0.1275       1.742      0.6838
 9.4518  1058.0  0.1380       1.781      0.7283
 9.4340  1060.0  0.1494       1.817      0.7807
 9.4162  1062.0  0.1618       1.848      0.8416
 9.3985  1064.0  0.1753       1.872      0.9114
 9.3809  1066.0  0.1897       1.888      0.9900
 9.3633  1068.0  0.2052       1.891       1.076
 9.3458  1070.0  0.2216       1.880       1.169
 9.3284  1072.0  0.2387       1.851       1.264
 9.3110  1074.0  0.2563       1.802       1.357
 9.2937  1076.0  0.2740       1.734       1.442
 9.2764  1078.0  0.2915       1.650       1.514
 9.2593  1080.0  0.3084       1.552       1.569
 9.2421  1082.0  0.3242       1.447       1.605
 9.2251  1084.0  0.3386       1.341       1.621
 9.2081  1086.0  0.3514       1.237       1.620
 9.1912  1088.0  0.3624       1.139       1.603
 9.1743  1090.0  0.3715       1.050       1.575
 9.1575  1092.0  0.3788      0.9700       1.538
 9.1408  1094.0  0.3841      0.8991       1.494
 9.1241  1096.0  0.3877      0.8368       1.447
 9.1075  1098.0  0.3895      0.7826       1.396
 9.0909  1100.0  0.3895      0.7356       1.344
 9.0744  1102.0  0.3880      0.6950       1.292
 9.0580  1104.0  0.3848      0.6601       1.239
 9.0416  1106.0  0.3801      0.6302       1.187
 9.0253  1108.0  0.3738      0.6049       1.135
 9.0090  1110.0  0.3661      0.5835       1.084
 8.9928  1112.0  0.3570      0.5658       1.033
 8.9767  1114.0  0.3464      0.5514      0.9837
 8.9606  1116.0  0.3345      0.5400      0.9348
 8.9445  1118.0  0.3212      0.5315      0.8867
 8.9286  1120.0  0.3066      0.5257      0.8395
 8.9127  1122.0  0.2907      0.5226      0.7930
 8.8968  1124.0  0.2738      0.5220      0.7474
 8.8810  1126.0  0.2559      0.5239      0.7028
 8.8652  1128.0  0.2371      0.5284      0.6592
 8.8496  1130.0  0.2179      0.5353      0.6169
 8.8339  1132.0  0.1983      0.5447      0.5760
 8.8183  1134.0  0.1788      0.5565      0.5367
 8.8028  1136.0  0.1598      0.5704      0.4994
 8.7873  1138.0  0.1415      0.5863      0.4642
 8.7719  1140.0  0.1244      0.6038      0.4313
 8.7566  1142.0  0.1085      0.6226      0.4008
 8.7413  1144.0  0.0941      0.6423      0.3729
 8.7260  1146.0  0.0812      0.6627      0.3474
 8.7108  1148.0  0.0699      0.6834      0.3242
 8.6957  1150.0  0.0599      0.7041      0.3032
 8.6806  1152.0  0.0513      0.7246      0.2842
 8.6655  1154.0  0.0438      0.7448      0.2670
 8.6505  1156.0  0.0373      0.7646      0.2514
 8.6356  1158.0  0.0318      0.7839      0.2374
 8.6207  1160.0  0.0271      0.8025      0.2246
 8.6059  1162.0  0.0231      0.8207      0.2129
 8.5911  1164.0  0.0196      0.8382      0.2023
 8.5763  1166.0  0.0167      0.8551      0.1926
 8.5616  1168.0  0.0142      0.8715      0.1837
 8.5470  1170.0  0.0121      0.8873      0.1755
 8.5324  1172.0  0.0103      0.9025      0.1679
 8.5179  1174.0  0.0088      0.9173      0.1609
 8.5034  1176.0  0.0076      0.9315      0.1545
 8.4890  1178.0  0.0066      0.9452      0.1485
 8.4746  1180.0  0.0057      0.9585      0.1429
 8.4602  1182.0  0.0051      0.9714      0.1377
 8.4459  1184.0  0.0045      0.9838      0.1328
 8.4317  1186.0  0.0041      0.9959      0.1283
 8.4175  1188.0  0.0038       1.008      0.1240
 8.4034  1190.0  0.0036       1.019      0.1200
 8.3893  1192.0  0.0035       1.030      0.1162
 8.3752  1194.0  0.0034       1.040      0.1127
 8.3612  1196.0  0.0034       1.051      0.1094
 8.3472  1198.0  0.0035       1.061      0.1062
 8.3333  1200.0  0.0036       1.071      0.1032
 8.3195  1202.0  0.0038       1.080      0.1004
 8.3056  1204.0  0.0040       1.089     0.09771
 8.2919  1206.0  0.0042       1.098     0.09517
 8.2781  1208.0  0.0045       1.107     0.09275
 8.2645  1210.0  0.0048       1.116     0.09046
 8.2508  1212.0  0.0051       1.124     0.08827
 8.2372  1214.0  0.0055       1.132     0.08619
 8.2237  1216.0  0.0058       1.140     0.08420
 8.2102  1218.0  0.0062       1.148     0.08231
 8.1967  1220.0  0.0066       1.155     0.08050
 8.1833  1222.0  0.0070       1.163     0.07877
 8.1699  1224.0  0.0074       1.170     0.07712
 8.1566  1226.0  0.0078       1.177     0.07553
 8.1433  1228.0  0.0082       1.184     0.07402
 8.1301  1230.0  0.0087       1.191     0.07257
 8.1169  1232.0  0.0091       1.198     0.07117
 8.1037  1234.0  0.0096       1.204     0.06984
 8.0906  1236.0  0.0100       1.210     0.06856
 8.0775  1238.0  0.0105       1.217     0.06733
 8.0645  1240.0  0.0109       1.223     0.06614
 8.0515  1242.0  0.0114       1.229     0.06501
 8.0386  1244.0  0.0118       1.235     0.06392
 8.0257  1246.0  0.0123       1.241     0.06287
 8.0128  1248.0  0.0128       1.246     0.06185
 8.0000  1250.0  0.0132       1.252     0.06088
 7.9872  1252.0  0.0137       1.257     0.05995
 7.9745  1254.0  0.0141       1.263     0.05905
 7.9618  1256.0  0.0146       1.268     0.05818
 7.9491  1258.0  0.0151       1.273     0.05734
 7.9365  1260.0  0.0155       1.278     0.05654
 7.9239  1262.0  0.0160       1.283     0.05576
 7.9114  1264.0  0.0164       1.288     0.05502
 7.8989  1266.0  0.0169       1.293     0.05430
 7.8864  1268.0  0.0174       1.298     0.05361
 7.8740  1270.0  0.0178       1.303     0.05294
 7.8616  1272.0  0.0183       1.307     0.05229
 7.8493  1274.0  0.0187       1.312     0.05167
 7.8370  1276.0  0.0191       1.317     0.05108
 7.8247  1278.0  0.0196       1.321     0.05050
 7.8125  1280.0  0.0200       1.325     0.04995
 7.8003  1282.0  0.0205       1.330     0.04942
 7.7882  1284.0  0.0209       1.334     0.04891
 7.7760  1286.0  0.0214       1.338     0.04841
 7.7640  1288.0  0.0218       1.342     0.04794
 7.7519  1290.0  0.0222       1.347     0.04748
 7.7399  1292.0  0.0226       1.351     0.04705
 7.7280  1294.0  0.0231       1.355     0.04663
 7.7160  1296.0  0.0235       1.359     0.04623
 7.7042  1298.0  0.0239       1.363     0.04584
 7.6923  1300.0  0.0243       1.367     0.04547
 7.6805  1302.0  0.0248       1.370     0.04512
 7.6687  1304.0  0.0252       1.374     0.04478
 7.6570  1306.0  0.0256       1.378     0.04446
 7.6453  1308.0  0.0260       1.382     0.04415
 7.6336  1310.0  0.0264       1.385     0.04386
 7.6220  1312.0  0.0268       1.389     0.04359
 7.6104  1314.0  0.0272       1.393     0.04332
 7.5988  1316.0  0.0276       1.396     0.04308
 7.5873  1318.0  0.0280       1.400     0.04284
 7.5758  1320.0  0.0284       1.403     0.04263
 7.5643  1322.0  0.0288       1.407     0.04242
 7.5529  1324.0  0.0292       1.410     0.04223
 7.5415  1326.0  0.0296       1.413     0.04205
 7.5301  1328.0  0.0300       1.417     0.04189
 7.5188  1330.0  0.0304       1.420     0.04174
 7.5075  1332.0  0.0308       1.423     0.04161
 7.4963  1334.0  0.0312       1.427     0.04148
 7.4850  1336.0  0.0316       1.430     0.04138
 7.4738  1338.0  0.0320       1.433     0.04128
 7.4627  1340.0  0.0324       1.436     0.04120
 7.4516  1342.0  0.0328       1.440     0.04114
 7.4405  1344.0  0.0331       1.443     0.04108
 7.4294  1346.0  0.0335       1.446     0.04104
 7.4184  1348.0  0.0339       1.449     0.04102
 7.4074  1350.0  0.0343       1.452     0.04101
 7.3964  1352.0  0.0347       1.455     0.04102
 7.3855  1354.0  0.0350       1.458     0.04103
 7.3746  1356.0  0.0354       1.461     0.04107
 7.3638  1358.0  0.0358       1.465     0.04112
 7.3529  1360.0  0.0362       1.468     0.04118
 7.3421  1362.0  0.0365       1.471     0.04127
 7.3314  1364.0  0.0369       1.474     0.04136
 7.3206  1366.0  0.0373       1.477     0.04148
 7.3099  1368.0  0.0377       1.480     0.04161
 7.2993  1370.0  0.0380       1.482     0.04175
 7.2886  1372.0  0.0384       1.485     0.04192
 7.2780  1374.0  0.0388       1.488     0.04210
 7.2674  1376.0  0.0392       1.491     0.04230
 7.2569  1378.0  0.0395       1.494     0.04252
 7.2464  1380.0  0.0399       1.497     0.04276
 7.2359  1382.0  0.0403       1.500     0.04302
 7.2254  1384.0  0.0407       1.503     0.04331
 7.2150  1386.0  0.0410       1.506     0.04361
 7.2046  1388.0  0.0414       1.509     0.04393
 7.1942  1390.0  0.0418       1.512     0.04428
 7.1839  1392.0  0.0422       1.515     0.04465
 7.1736  1394.0  0.0426       1.517     0.04505
 7.1633  1396.0  0.0429       1.520     0.04548
 7.1531  1398.0  0.0433       1.523     0.04593
 7.1429  1400.0  0.0437       1.526     0.04640
 7.1327  1402.0  0.0441       1.529     0.04691
 7.1225  1404.0  0.0445       1.532     0.04745
 7.1124  1406.0  0.0449       1.535     0.04802
 7.1023  1408.0  0.0453       1.538     0.04862
 7.0922  1410.0  0.0456       1.541     0.04926
 7.0822  1412.0  0.0460       1.544     0.04993
 7.0721  1414.0  0.0464       1.547     0.05064
 7.0621  1416.0  0.0468       1.549     0.05139
 7.0522  1418.0  0.0472       1.552     0.05219
 7.0423  1420.0  0.0476       1.555     0.05302
 7.0323  1422.0  0.0480       1.558     0.05390
 7.0225  1424.0  0.0485       1.561     0.05484
 7.0126  1426.0  0.0489       1.564     0.05582
 7.0028  1428.0  0.0493       1.567     0.05685
 6.9930  1430.0  0.0497       1.570     0.05794
 6.9832  1432.0  0.0501       1.573     0.05909
 6.9735  1434.0  0.0505       1.576     0.06031
 6.9638  1436.0  0.0510       1.579     0.06159
 6.9541  1438.0  0.0514       1.582     0.06294
 6.9444  1440.0  0.0519       1.585     0.06436
 6.9348  1442.0  0.0523       1.588     0.06587
 6.9252  1444.0  0.0527       1.592     0.06745
 6.9156  1446.0  0.0532       1.595     0.06913
 6.9061  1448.0  0.0537       1.598     0.07089
 6.8966  1450.0  0.0541       1.601     0.07276
 6.8871  1452.0  0.0546       1.604     0.07473
 6.8776  1454.0  0.0551       1.607     0.07681
 6.8681  1456.0  0.0555       1.610     0.07901
 6.8587  1458.0  0.0560       1.613     0.08133
 6.8493  1460.0  0.0565       1.617     0.08379
 6.8399  1462.0  0.0570       1.620     0.08639
 6.8306  1464.0  0.0575       1.623     0.08914
 6.8213  1466.0  0.0580       1.626     0.09204
 6.8120  1468.0  0.0585       1.629     0.09512
 6.8027  1470.0  0.0590       1.632     0.09837
 6.7935  1472.0  0.0595       1.635      0.1018
 6.7843  1474.0  0.0600       1.638      0.1055
 6.7751  1476.0  0.0606       1.641      0.1093
 6.7659  1478.0  0.0611       1.644      0.1134
 6.7568  1480.0  0.0616       1.647      0.1177
 6.7476  1482.0  0.0621       1.650      0.1223
 6.7385  1484.0  0.0627       1.652      0.1271
 6.7295  1486.0  0.0632       1.655      0.1322
 6.7204  1488.0  0.0637       1.657      0.1376
 6.7114  1490.0  0.0642       1.660      0.1433
 6.7024  1492.0  0.0647       1.661      0.1493
 6.6934  1494.0  0.0652       1.663      0.1556
 6.6845  1496.0  0.0657       1.665      0.1622
 6.6756  1498.0  0.0661       1.666      0.1691
 6.6667  1500.0  0.0666       1.666      0.1764
 6.6578  1502.0  0.0670       1.667      0.1839
 6.6489  1504.0  0.0673       1.667      0.1918
 6.6401  1506.0  0.0676       1.666      0.1999
 6.6313  1508.0  0.0679       1.665      0.2083
 6.6225  1510.0  0.0681       1.663      0.2169
 6.6138  1512.0  0.0683       1.660      0.2256
 6.6050  1514.0  0.0684       1.657      0.2345
 6.5963  1516.0  0.0683       1.652      0.2433
 6.5876  1518.0  0.0682       1.647      0.2521
 6.5789  1520.0  0.0680       1.641      0.2607
 6.5703  1522.0  0.0677       1.635      0.2690
 6.5617  1524.0  0.0673       1.627      0.2769
 6.5531  1526.0  0.0667       1.618      0.2843
 6.5445  1528.0  0.0660       1.608      0.2910
 6.5359  1530.0  0.0652       1.598      0.2969
 6.5274  1532.0  0.0642       1.587      0.3019
 6.5189  1534.0  0.0631       1.575      0.3058
 6.5104  1536.0  0.0619       1.563      0.3087
 6.5020  1538.0  0.0605       1.551      0.3103
 6.4935  1540.0  0.0590       1.538      0.3107
 6.4851  1542.0  0.0575       1.525      0.3099
 6.4767  1544.0  0.0558       1.513      0.3078
 6.4683  1546.0  0.0541       1.501      0.3046
 6.4599  1548.0  0.0524       1.489      0.3002
 6.4516  1550.0  0.0507       1.478      0.2949
 6.4433  1552.0  0.0489       1.468      0.2886
 6.4350  1554.0  0.0472       1.458      0.2816
 6.4267  1556.0  0.0456       1.450      0.2740
 6.4185  1558.0  0.0441       1.442      0.2658
 6.4103  1560.0  0.0426       1.435      0.2572
 6.4020  1562.0  0.0412       1.429      0.2484
 6.3939  1564.0  0.0399       1.424      0.2394
 6.3857  1566.0  0.0388       1.420      0.2303
 6.3776  1568.0  0.0377       1.416      0.2213
 6.3694  1570.0  0.0368       1.413      0.2124
 6.3613  1572.0  0.0360       1.411      0.2036
 6.3532  1574.0  0.0352       1.410      0.1950
 6.3452  1576.0  0.0346       1.409      0.1867
 6.3371  1578.0  0.0341       1.409      0.1787
 6.3291  1580.0  0.0337       1.409      0.1710
 6.3211  1582.0  0.0333       1.409      0.1636
 6.3131  1584.0  0.0330       1.410      0.1565
 6.3052  1586.0  0.0328       1.411      0.1497
 6.2972  1588.0  0.0327       1.413      0.1433
 6.2893  1590.0  0.0326       1.414      0.1371
 6.2814  1592.0  0.0325       1.416      0.1313
 6.2735  1594.0  0.0325       1.418      0.1258
 6.2657  1596.0  0.0326       1.421      0.1205
 6.2578  1598.0  0.0327       1.423      0.1155
 6.2500  1600.0  0.0328       1.425      0.1108
 6.2422  1602.0  0.0329       1.428      0.1063
 6.2344  1604.0  0.0330       1.430      0.1021
 6.2267  1606.0  0.0332       1.433     0.09811
 6.2189  1608.0  0.0334       1.435     0.09431
 6.2112  1610.0  0.0336       1.438     0.09072
 6.2035  1612.0  0.0338       1.440     0.08732
 6.1958  1614.0  0.0340       1.443     0.08409
 6.1881  1616.0  0.0342       1.446     0.08103
 6.1805  1618.0  0.0345       1.448     0.07813
 6.1728  1620.0  0.0347       1.451     0.07537
 6.1652  1622.0  0.0350       1.453     0.07276
 6.1576  1624.0  0.0352       1.456     0.07028
 6.1501  1626.0  0.0355       1.458     0.06792
 6.1425  1628.0  0.0357       1.461     0.06568
 6.1350  1630.0  0.0360       1.463     0.06355
 6.1275  1632.0  0.0363       1.466     0.06152
 6.1200  1634.0  0.0365       1.468     0.05959
 6.1125  1636.0  0.0368       1.470     0.05775
 6.1050  1638.0  0.0370       1.473     0.05599
 6.0976  1640.0  0.0373       1.475     0.05432
 6.0901  1642.0  0.0376       1.477     0.05272
 6.0827  1644.0  0.0378       1.479     0.05120
 6.0753  1646.0  0.0381       1.482     0.04974
 6.0680  1648.0  0.0383       1.484     0.04835
 6.0606  1650.0  0.0386       1.486     0.04702
 6.0533  1652.0  0.0388       1.488     0.04574
 6.0459  1654.0  0.0391       1.490     0.04452
 6.0386  1656.0  0.0393       1.492     0.04336
 6.0314  1658.0  0.0395       1.494     0.04224
 6.0241  1660.0  0.0398       1.496     0.04116
 6.0168  1662.0  0.0400       1.498     0.04013
 6.0096  1664.0  0.0402       1.500     0.03914
 6.0024  1666.0  0.0405       1.502     0.03819
 5.9952  1668.0  0.0407       1.504     0.03728
 5.9880  1670.0  0.0409       1.506     0.03640
 5.9809  1672.0  0.0411       1.507     0.03555
 5.9737  1674.0  0.0414       1.509     0.03474
 5.9666  1676.0  0.0416       1.511     0.03396
 5.9595  1678.0  0.0418       1.513     0.03320
 5.9524  1680.0  0.0420       1.514     0.03248
 5.9453  1682.0  0.0422       1.516     0.03178
 5.9382  1684.0  0.0424       1.518     0.03110
 5.9312  1686.0  0.0426       1.519     0.03045
 5.9242  1688.0  0.0428       1.521     0.02982
 5.9172  1690.0  0.0430       1.522     0.02921
 5.9102  1692.0  0.0432       1.524     0.02863
 5.9032  1694.0  0.0434       1.526     0.02806
 5.8962  1696.0  0.0436       1.527     0.02751
 5.8893  1698.0  0.0438       1.529     0.02698
 5.8824  1700.0  0.0440       1.530     0.02647
