Chlorite data from Mooney and Knacke, Icarus, 64, 493-502 (1985)
Chemical analysis (wt. %) SiO2: 24.10, TiO2: 0.08, Al2O3: 21.35,
FeO: 36.95, MnO: 0.39, MgO: 6.82, CaO: 0.04, LOI: 10.27
cm-1     n        k
4000   1.525   .00268
3990   1.525   .00270
3980   1.525   .00280
3970   1.526   .00292
3960   1.526   .00298
3950   1.525   .00303
3940   1.524   .00308
3930   1.525   .00314
3920   1.527   .00327
3910   1.528   .00343
3900   1.529   .00353
3890   1.530   .00367
3880   1.533   .00384
3870   1.534   .00398
3860   1.536   .00408
3850   1.537   .00424
3840   1.537   .00442
3830   1.536   .00455
3820   1.535   .00477
3810   1.534   .00513
3800   1.532   .00552
3790   1.530   .00585
3780   1.529   .00610
3770   1.529   .00626
3760   1.530   .00638
3750   1.533   .00654
3740   1.534   .00687
3730   1.534   .00724
3720   1.534   .00753
3710   1.533   .00793
3700   1.534   .00833
3690   1.536   .00857
3680   1.537   .00903
3670   1.534   .0101
3660   1.529   .0110
3650   1.526   .0118
3640   1.525   .0131
3630   1.527   .0139
3620   1.527   .0141
3610   1.523   .0145
3600   1.516   .0150
3590   1.508   .0159
3580   1.502   .0183
3570   1.499   .0220
3560   1.501   .0247
3550   1.506   .0260
3540   1.512   .0265
3530   1.519   .0266
3520   1.524   .0265
3510   1.526   .0260
3500   1.527   .0255
3490   1.528   .0248
3480   1.527   .0239
3470   1.527   .0231
3460   1.528   .0234
3450   1.531   .0253
3440   1.537   .0270
3430   1.544   .0277
3420   1.549   .0285
3410   1.554   .0305
3400   1.558   .0325
3390   1.562   .0337
3380   1.566   .0344
3370   1.570   .0349
3360   1.573   .0353
3350   1.576   .0353
3340   1.578   .0351
3330   1.580   .0348
3320   1.580   .0336
3310   1.580   .0319
3300   1.581   .0304
3290   1.582   .0287
3280   1.580   .0270
3270   1.579   .0261
3260   1.578   .0258
3250   1.578   .0257
3240   1.578   .0253
3230   1.579   .0243
3220   1.580   .0231
3210   1.579   .0225
3200   1.578   .0216
3190   1.577   .0204
3180   1.576   .0199
3170   1.576   .0202
3160   1.574   .0198
3150   1.574   .0186
3140   1.573   .0173
3130   1.572   .0157
3120   1.570   .0146
3110   1.570   .0143
3100   1.568   .0143
3090   1.567   .0141
3080   1.566   .0138
3070   1.565   .0135
3060   1.565   .0130
3050   1.564   .0123
3040   1.563   .0115
3030   1.563   .0106
3020   1.564   .0102
3010   1.564   .0102
3000   1.563   .0101
2990   1.562   .00962
2980   1.561   .00991
2970   1.561   .00954
2960   1.561
2950   1.561
2940   1.561
2930   1.562
2920   1.562
2910   1.563
2900   1.563
2890   1.562
2880   1.562
2870   1.561
2860   1.560
2850   1.560
2840   1.562
2830   1.564
2820   1.565
2810   1.565
2800   1.564
2790   1.565
2780   1.566   .00548
2770   1.566   .00518
2760   1.565   .00521
2750   1.564   .00521
2740   1.564   .00510
2730   1.565   .00498
2720   1.565   .00495
2710   1.565   .00487
2700   1.565   .00479
2690   1.566   .00478
2680   1.565   .00479
2670   1.564   .00474
2660   1.563   .00461
2650   1.563   .00449
2640   1.563   .00444
2630   1.562   .00436
2620   1.563   .00420
2610   1.564   .00394
2600   1.564   .00366
2590   1.563   .00342
2580   1.561   .00322
2570   1.562   .00306
2560   1.562   .00292
2550   1.561   .00278
2540   1.560   .00269
2530   1.558   .00272
2520   1.558   .00276
2510   1.560   .00276
2500   1.561   .00280
2490   1.560   .00278
2480   1.559   .00268
2470   1.558   .00263
2460   1.559   .00262
2450   1.561   .00261
2440   1.564   .00262
2430   1.566   .00261
2420   1.566   .00254
2410   1.563   .00253
2290   1.517   .00275
2280   1.516   .00276
2270   1.515   .00278
2260   1.514   .00280
2250   1.513   .00282
2240   1.513   .00285
2230   1.512   .00287
2220   1.511   .00290
2210   1.510   .00292
2200   1.509   .00295
2190   1.508   .00298
2180   1.507   .00300
2170   1.506   .00304
2160   1.505   .00307
2150   1.504   .00310
2140   1.503   .00313
2130   1.503   .00317
2120   1.502   .00321
2110   1.501   .00325
2100   1.500   .00329
2090   1.499   .00333
2080   1.498   .00337
2070   1.497   .00342
2060   1.496   .00346
2050   1.495   .00351
2040   1.494   .00356
2030   1.492   .00361
2020   1.491   .00366
2010   1.490   .00372
2000   1.489   .00378
1990   1.488   .00384
1980   1.487   .00390
1970   1.485   .00396
1960   1.484   .00402
1950   1.483   .00409
1940   1.481   .00416
1930   1.480   .00423
1920   1.478   .00431
1910   1.477   .00438
1900   1.476   .00446
1890   1.474   .00455
1880   1.473   .00463
1870   1.471   .00472
1860   1.470   .00481
1850   1.468   .00491
1840   1.467   .00501
1830   1.465   .00511
1820   1.463   .00521
1810   1.462   .00532
1800   1.460   .00544
1790   1.458   .00556
1780   1.456   .00568
1770   1.454   .00581
1760   1.453   .00594
1750   1.451   .00607
1740   1.449   .00622
1730   1.447   .00636
1720   1.444   .00652
1710   1.442   .00668
1700   1.440   .00685
1690   1.438   .00702
1680   1.435   .00720
1670   1.433   .00739
1660   1.431   .00759
1650   1.428   .00779
1640   1.426   .00801
1630   1.423   .00823
1620   1.420   .00846
1610   1.417   .00871
1600   1.414   .00897
1590   1.411   .00923
1580   1.408   .00952
1570   1.405   .00981
1560   1.402   .0101
1550   1.398   .0104
1540   1.395   .0108
1530   1.391   .0112
1520   1.387   .0115
1510   1.383   .0119
1500   1.379   .0124
1490   1.375   .0128
1480   1.371   .0133
1470   1.366   .0138
1460   1.361   .0143
1450   1.357   .0149
1440   1.352   .0155
1430   1.347   .0162
1420   1.341   .0168    
1410   1.335   .0176
1400   1.330   .0184
1390   1.323   .0192
1380   1.317   .0201
1370   1.310   .0211
1360   1.303   .0222
1350   1.295   .0234
1340   1.287   .0246
1330   1.279   .0260
1320   1.270   .0275
1310   1.261   .0292
1300   1.251   .0310
1290   1.241   .0331
1280   1.229   .0354
1270   1.217   .0379
1260   1.204   .0408
1250   1.191   .0441
1240   1.176   .0479
1230   1.160   .0523
1220   1.142   .0574
1210   1.123   .0636
1200   1.101   .0711
1190   1.078   .0804
1180   1.052   .0923
1170   1.023   .108
1160    .991   .129
1150    .958   .159
1140    .928   .200
1130    .909   .252
1120    .909   .299
1110    .910   .329
1100    .893   .369
1090    .927   .423
1080    .929   .379
1070    .844   .389
1060    .764   .469
1050    .725   .596
1040    .758   .718
1030    .760   .784
1020    .751   .919
1010    .798  1.090
1000    .918  1.270
 990   1.125  1.420
 980   1.398  1.470
 970   1.644  1.400
 960   1.831  1.280
 950   1.978  1.120
 940   2.056   .934
 930   2.060   .759
 920   2.020   .626
 910   1.966   .533
 900   1.914   .469
 890   1.867   .421
 880   1.824   .382
 870   1.783   .350
 860   1.742   .323
 850   1.699   .302
 840   1.654   .287
 830   1.606   .279
 820   1.558   .281
 810   1.509   .294
 800   1.464   .320
 790   1.427   .360
 780   1.406   .412
 770   1.409   .470
 760   1.440   .518
 750   1.491   .537
 740   1.537   .520
 730   1.558   .479
 720   1.546   .434
 710   1.507   .403
 700   1.452   .395
 690   1.392   .418
 680   1.346   .476
 670   1.346   .559
 660   1.405   .607
 650   1.455   .578
 640   1.427   .534
 630   1.351   .554
 620   1.311   .671 
 610   1.440   .801
 600   1.617   .689
 590   1.574   .520
 580   1.448   .460
 570   1.321   .486
 560   1.237   .583
 550   1.259   .671
 540   1.255   .646
 530   1.150   .653
 520   1.023   .746
 510    .931   .922
 500    .922  1.150
 490   1.004  1.360
 480   1.133  1.510
 470   1.256  1.650
 460   1.444  1.790
 450   1.691  1.820
 440   1.837  1.790
 430   2.022  1.870
 420   2.384  1.770
 410   2.500  1.440
 400   2.439  1.270
 390   2.391  1.180
 380   2.360  1.140
 370   2.350  1.100
 360   2.298  1.060
 350   2.236  1.100
 340   2.268  1.200
 330   2.399  1.230
 320   2.484  1.150
 310   2.472  1.100
 300   2.519  1.080
 290   2.499  1.030
 280   2.507  1.070
 270   2.567  1.070
 260   2.604  1.050
 250   2.637  1.030
 240   2.666  1.020
 230   2.696  1.020
 220   2.737  1.010
 210   2.751   .997
 200   2.763  1.060