Data created using the Lorentz line parameters in J.R. Aronson and P.F.
Strong, Optical constants of minerals and rocks, Applied Optics, 14, 
2914-2920, 1975.  Data are for measurments parallel to the b
crystallographic axis.  These could be recalculated at any spectral 
resolution.  Range of validity is given as 1500-320 inverse centimeters.

high frq. dielec. const=  2.553
Lorentz line parameters
center  width  strength
1067.2  0.0182  0.0110
1015.6  0.0234  0.1680
 987.6  0.0311  0.3250
 908.7  0.0190  0.0170
 744.2  0.0853  0.0730
 559.3  0.1919  0.2360
 527.6  0.0593  0.7110
 470.1  0.0527  0.4040
 409.7  0.0759  0.6970
 353.5  0.0553  0.0680

 wave.    freq.   calc.       real       imag.
micron    (cm-1)  refl.       index     index
31.2500   320.0  0.2178       2.746     0.09869
31.0559   322.0  0.2196       2.759      0.1032
30.8642   324.0  0.2214       2.773      0.1083
30.6748   326.0  0.2233       2.787      0.1139
30.4878   328.0  0.2253       2.801      0.1203
30.3030   330.0  0.2274       2.817      0.1275
30.1205   332.0  0.2297       2.833      0.1358
29.9401   334.0  0.2320       2.850      0.1455
29.7619   336.0  0.2345       2.868      0.1570
29.5858   338.0  0.2371       2.886      0.1707
29.4118   340.0  0.2397       2.905      0.1873
29.2398   342.0  0.2424       2.923      0.2074
29.0698   344.0  0.2450       2.940      0.2320
28.9017   346.0  0.2473       2.952      0.2613
28.7356   348.0  0.2489       2.958      0.2945
28.5714   350.0  0.2493       2.953      0.3282
28.4091   352.0  0.2482       2.937      0.3559
28.2486   354.0  0.2458       2.913      0.3704
28.0899   356.0  0.2430       2.891      0.3690
27.9330   358.0  0.2411       2.880      0.3561
27.7778   360.0  0.2407       2.881      0.3392
27.6243   362.0  0.2418       2.894      0.3241
27.4725   364.0  0.2440       2.914      0.3136
27.3224   366.0  0.2470       2.939      0.3086
27.1739   368.0  0.2505       2.968      0.3088
27.0270   370.0  0.2544       2.998      0.3136
26.8817   372.0  0.2586       3.031      0.3228
26.7380   374.0  0.2629       3.064      0.3359
26.5957   376.0  0.2675       3.098      0.3531
26.4550   378.0  0.2724       3.133      0.3743
26.3158   380.0  0.2774       3.170      0.3999
26.1780   382.0  0.2827       3.207      0.4303
26.0417   384.0  0.2882       3.245      0.4661
25.9067   386.0  0.2940       3.283      0.5081
25.7732   388.0  0.3001       3.321      0.5571
25.6410   390.0  0.3065       3.358      0.6144
25.5102   392.0  0.3131       3.392      0.6810
25.3807   394.0  0.3200       3.422      0.7582
25.2525   396.0  0.3271       3.446      0.8469
25.1256   398.0  0.3341       3.458      0.9476
25.0000   400.0  0.3410       3.456       1.060
24.8756   402.0  0.3475       3.433       1.181
24.7525   404.0  0.3530       3.384       1.305
24.6305   406.0  0.3572       3.305       1.426
24.5098   408.0  0.3594       3.197       1.532
24.3902   410.0  0.3589       3.064       1.613
24.2718   412.0  0.3552       2.913       1.661
24.1546   414.0  0.3479       2.758       1.672
24.0385   416.0  0.3369       2.610       1.647
23.9234   418.0  0.3224       2.478       1.591
23.8095   420.0  0.3051       2.369       1.512
23.6967   422.0  0.2862       2.286       1.419
23.5849   424.0  0.2670       2.229       1.318
23.4742   426.0  0.2489       2.198       1.216
23.3645   428.0  0.2333       2.189       1.118
23.2558   430.0  0.2210       2.199       1.029
23.1481   432.0  0.2125       2.224      0.9498
23.0415   434.0  0.2075       2.260      0.8822
22.9358   436.0  0.2057       2.306      0.8264
22.8311   438.0  0.2066       2.358      0.7822
22.7273   440.0  0.2097       2.415      0.7491
22.6244   442.0  0.2145       2.475      0.7267
22.5225   444.0  0.2207       2.538      0.7145
22.4215   446.0  0.2281       2.603      0.7126
22.3214   448.0  0.2364       2.669      0.7212
22.2222   450.0  0.2455       2.736      0.7408
22.1239   452.0  0.2555       2.803      0.7725
22.0264   454.0  0.2661       2.869      0.8177
21.9298   456.0  0.2774       2.931      0.8782
21.8341   458.0  0.2893       2.988      0.9560
21.7391   460.0  0.3016       3.032       1.053
21.6450   462.0  0.3141       3.059       1.168
21.5517   464.0  0.3262       3.057       1.299
21.4592   466.0  0.3372       3.019       1.438
21.3675   468.0  0.3460       2.937       1.569
21.2766   470.0  0.3513       2.815       1.675
21.1864   472.0  0.3519       2.664       1.737
21.0970   474.0  0.3470       2.505       1.749
21.0084   476.0  0.3362       2.359       1.713
20.9205   478.0  0.3205       2.239       1.640
20.8333   480.0  0.3013       2.154       1.544
20.7469   482.0  0.2810       2.104       1.439
20.6612   484.0  0.2620       2.086       1.335
20.5761   486.0  0.2462       2.096       1.239
20.4918   488.0  0.2347       2.127       1.157
20.4082   490.0  0.2279       2.174       1.090
20.3252   492.0  0.2254       2.232       1.039
20.2429   494.0  0.2265       2.298       1.004
20.1613   496.0  0.2304       2.368      0.9825
20.0803   498.0  0.2367       2.441      0.9752
20.0000   500.0  0.2447       2.516      0.9810
19.9203   502.0  0.2541       2.591      0.9997
19.8413   504.0  0.2648       2.667       1.031
19.7628   506.0  0.2766       2.742       1.076
19.6850   508.0  0.2893       2.815       1.136
19.6078   510.0  0.3030       2.884       1.210
19.5312   512.0  0.3176       2.948       1.302
19.4553   514.0  0.3332       3.003       1.411
19.3798   516.0  0.3496       3.044       1.539
19.3050   518.0  0.3668       3.067       1.684
19.2308   520.0  0.3847       3.064       1.845
19.1571   522.0  0.4030       3.030       2.015
19.0840   524.0  0.4214       2.959       2.187
19.0114   526.0  0.4394       2.849       2.348
18.9394   528.0  0.4565       2.705       2.486
18.8679   530.0  0.4724       2.535       2.593
18.7970   532.0  0.4864       2.351       2.661
18.7266   534.0  0.4985       2.165       2.693
18.6567   536.0  0.5083       1.987       2.691
18.5874   538.0  0.5159       1.824       2.663
18.5185   540.0  0.5213       1.677       2.617
18.4502   542.0  0.5246       1.549       2.557
18.3824   544.0  0.5261       1.439       2.489
18.3150   546.0  0.5258       1.344       2.417
18.2482   548.0  0.5241       1.262       2.344
18.1818   550.0  0.5211       1.193       2.270
18.1159   552.0  0.5170       1.134       2.199
18.0505   554.0  0.5119       1.083       2.130
17.9856   556.0  0.5060       1.039       2.063
17.9211   558.0  0.4996       1.001       1.999
17.8571   560.0  0.4925      0.9671       1.937
17.7936   562.0  0.4851      0.9378       1.879
17.7305   564.0  0.4773      0.9117       1.823
17.6678   566.0  0.4692      0.8884       1.769
17.6056   568.0  0.4608      0.8674       1.717
17.5439   570.0  0.4522      0.8484       1.667
17.4825   572.0  0.4434      0.8311       1.618
17.4216   574.0  0.4343      0.8153       1.571
17.3611   576.0  0.4250      0.8008       1.526
17.3010   578.0  0.4154      0.7875       1.481
17.2414   580.0  0.4056      0.7754       1.437
17.1821   582.0  0.3954      0.7643       1.394
17.1233   584.0  0.3849      0.7543       1.352
17.0648   586.0  0.3741      0.7453       1.310
17.0068   588.0  0.3628      0.7373       1.269
16.9492   590.0  0.3511      0.7304       1.228
16.8919   592.0  0.3390      0.7245       1.188
16.8350   594.0  0.3264      0.7197       1.147
16.7785   596.0  0.3134      0.7160       1.107
16.7224   598.0  0.2999      0.7135       1.068
16.6667   600.0  0.2860      0.7121       1.029
16.6113   602.0  0.2716      0.7120      0.9895
16.5563   604.0  0.2569      0.7132      0.9508
16.5017   606.0  0.2418      0.7158      0.9124
16.4474   608.0  0.2266      0.7197      0.8744
16.3934   610.0  0.2111      0.7250      0.8370
16.3399   612.0  0.1957      0.7318      0.8001
16.2866   614.0  0.1803      0.7400      0.7639
16.2338   616.0  0.1652      0.7497      0.7285
16.1812   618.0  0.1504      0.7609      0.6940
16.1290   620.0  0.1362      0.7734      0.6606
16.0772   622.0  0.1226      0.7872      0.6284
16.0256   624.0  0.1098      0.8023      0.5974
15.9744   626.0  0.0979      0.8184      0.5678
15.9236   628.0  0.0870      0.8355      0.5397
15.8730   630.0  0.0770      0.8534      0.5132
15.8228   632.0  0.0680      0.8720      0.4881
15.7729   634.0  0.0601      0.8911      0.4646
15.7233   636.0  0.0530      0.9105      0.4426
15.6740   638.0  0.0469      0.9302      0.4221
15.6250   640.0  0.0416      0.9500      0.4031
15.5763   642.0  0.0371      0.9699      0.3854
15.5280   644.0  0.0333      0.9896      0.3689
15.4799   646.0  0.0301       1.009      0.3537
15.4321   648.0  0.0275       1.029      0.3396
15.3846   650.0  0.0253       1.048      0.3266
15.3374   652.0  0.0237       1.067      0.3146
15.2905   654.0  0.0224       1.086      0.3035
15.2439   656.0  0.0215       1.104      0.2933
15.1976   658.0  0.0208       1.122      0.2838
15.1515   660.0  0.0205       1.140      0.2752
15.1057   662.0  0.0204       1.157      0.2672
15.0602   664.0  0.0204       1.175      0.2600
15.0150   666.0  0.0207       1.191      0.2533
14.9701   668.0  0.0212       1.208      0.2472
14.9254   670.0  0.0217       1.224      0.2418
14.8810   672.0  0.0224       1.240      0.2368
14.8368   674.0  0.0232       1.256      0.2324
14.7929   676.0  0.0242       1.271      0.2285
14.7493   678.0  0.0252       1.287      0.2251
14.7059   680.0  0.0262       1.302      0.2222
14.6628   682.0  0.0274       1.316      0.2197
14.6199   684.0  0.0286       1.331      0.2177
14.5773   686.0  0.0299       1.345      0.2162
14.5349   688.0  0.0312       1.359      0.2151
14.4928   690.0  0.0326       1.373      0.2145
14.4509   692.0  0.0340       1.386      0.2144
14.4092   694.0  0.0354       1.399      0.2148
14.3678   696.0  0.0369       1.412      0.2157
14.3266   698.0  0.0384       1.425      0.2171
14.2857   700.0  0.0400       1.438      0.2190
14.2450   702.0  0.0415       1.450      0.2215
14.2045   704.0  0.0431       1.462      0.2245
14.1643   706.0  0.0447       1.473      0.2282
14.1243   708.0  0.0463       1.484      0.2324
14.0845   710.0  0.0479       1.495      0.2373
14.0449   712.0  0.0495       1.505      0.2428
14.0056   714.0  0.0511       1.514      0.2490
13.9665   716.0  0.0527       1.523      0.2558
13.9276   718.0  0.0542       1.531      0.2633
13.8889   720.0  0.0557       1.538      0.2713
13.8504   722.0  0.0571       1.544      0.2799
13.8122   724.0  0.0584       1.549      0.2890
13.7741   726.0  0.0597       1.552      0.2984
13.7363   728.0  0.0607       1.554      0.3080
13.6986   730.0  0.0617       1.555      0.3177
13.6612   732.0  0.0624       1.554      0.3271
13.6240   734.0  0.0629       1.551      0.3360
13.5870   736.0  0.0631       1.546      0.3441
13.5501   738.0  0.0631       1.540      0.3512
13.5135   740.0  0.0628       1.533      0.3568
13.4771   742.0  0.0623       1.524      0.3607
13.4409   744.0  0.0614       1.515      0.3627
13.4048   746.0  0.0603       1.505      0.3626
13.3690   748.0  0.0589       1.495      0.3604
13.3333   750.0  0.0574       1.485      0.3562
13.2979   752.0  0.0558       1.476      0.3499
13.2626   754.0  0.0541       1.467      0.3420
13.2275   756.0  0.0523       1.461      0.3325
13.1926   758.0  0.0507       1.455      0.3218
13.1579   760.0  0.0491       1.451      0.3103
13.1234   762.0  0.0477       1.449      0.2982
13.0890   764.0  0.0465       1.448      0.2857
13.0548   766.0  0.0455       1.449      0.2733
13.0208   768.0  0.0447       1.451      0.2610
12.9870   770.0  0.0441       1.454      0.2490
12.9534   772.0  0.0437       1.459      0.2374
12.9199   774.0  0.0435       1.464      0.2263
12.8866   776.0  0.0435       1.470      0.2158
12.8535   778.0  0.0437       1.477      0.2059
12.8205   780.0  0.0440       1.484      0.1966
12.7877   782.0  0.0444       1.492      0.1880
12.7551   784.0  0.0449       1.500      0.1799
12.7226   786.0  0.0456       1.509      0.1723
12.6904   788.0  0.0463       1.517      0.1654
12.6582   790.0  0.0472       1.526      0.1589
12.6263   792.0  0.0480       1.535      0.1529
12.5945   794.0  0.0490       1.544      0.1473
12.5628   796.0  0.0500       1.554      0.1422
12.5313   798.0  0.0510       1.563      0.1375
12.5000   800.0  0.0521       1.572      0.1331
12.4688   802.0  0.0532       1.582      0.1291
12.4378   804.0  0.0543       1.591      0.1254
12.4069   806.0  0.0554       1.601      0.1219
12.3762   808.0  0.0566       1.610      0.1188
12.3457   810.0  0.0578       1.620      0.1158
12.3153   812.0  0.0590       1.629      0.1132
12.2850   814.0  0.0602       1.638      0.1107
12.2549   816.0  0.0614       1.648      0.1084
12.2249   818.0  0.0627       1.657      0.1064
12.1951   820.0  0.0639       1.667      0.1045
12.1655   822.0  0.0652       1.676      0.1028
12.1359   824.0  0.0665       1.686      0.1012
12.1065   826.0  0.0678       1.695     0.09981
12.0773   828.0  0.0691       1.705     0.09855
12.0482   830.0  0.0704       1.714     0.09742
12.0192   832.0  0.0718       1.724     0.09643
11.9904   834.0  0.0731       1.733     0.09557
11.9617   836.0  0.0745       1.743     0.09483
11.9332   838.0  0.0759       1.753     0.09421
11.9048   840.0  0.0773       1.763     0.09371
11.8765   842.0  0.0787       1.773     0.09332
11.8483   844.0  0.0801       1.783     0.09305
11.8203   846.0  0.0816       1.793     0.09289
11.7925   848.0  0.0831       1.803     0.09285
11.7647   850.0  0.0846       1.813     0.09292
11.7371   852.0  0.0861       1.824     0.09311
11.7096   854.0  0.0877       1.834     0.09342
11.6822   856.0  0.0892       1.845     0.09386
11.6550   858.0  0.0909       1.856     0.09443
11.6279   860.0  0.0925       1.867     0.09513
11.6009   862.0  0.0942       1.879     0.09598
11.5741   864.0  0.0959       1.890     0.09699
11.5473   866.0  0.0977       1.902     0.09816
11.5207   868.0  0.0995       1.914     0.09952
11.4943   870.0  0.1014       1.927      0.1011
11.4679   872.0  0.1033       1.940      0.1029
11.4416   874.0  0.1053       1.953      0.1049
11.4155   876.0  0.1073       1.966      0.1073
11.3895   878.0  0.1094       1.981      0.1100
11.3636   880.0  0.1117       1.995      0.1131
11.3379   882.0  0.1140       2.010      0.1168
11.3122   884.0  0.1164       2.026      0.1210
11.2867   886.0  0.1189       2.042      0.1260
11.2613   888.0  0.1216       2.059      0.1320
11.2360   890.0  0.1244       2.077      0.1392
11.2108   892.0  0.1273       2.096      0.1481
11.1857   894.0  0.1305       2.115      0.1592
11.1607   896.0  0.1337       2.135      0.1732
11.1359   898.0  0.1371       2.155      0.1911
11.1111   900.0  0.1405       2.172      0.2140
11.0865   902.0  0.1435       2.185      0.2425
11.0619   904.0  0.1456       2.190      0.2760
11.0375   906.0  0.1459       2.181      0.3097
11.0132   908.0  0.1440       2.158      0.3344
10.9890   910.0  0.1401       2.127      0.3404
10.9649   912.0  0.1359       2.102      0.3270
10.9409   914.0  0.1332       2.093      0.3030
10.9170   916.0  0.1326       2.098      0.2781
10.8932   918.0  0.1338       2.113      0.2575
10.8696   920.0  0.1362       2.134      0.2426
10.8460   922.0  0.1393       2.159      0.2328
10.8225   924.0  0.1428       2.185      0.2272
10.7991   926.0  0.1466       2.213      0.2251
10.7759   928.0  0.1506       2.240      0.2256
10.7527   930.0  0.1548       2.269      0.2284
10.7296   932.0  0.1590       2.298      0.2331
10.7066   934.0  0.1634       2.327      0.2395
10.6838   936.0  0.1680       2.357      0.2476
10.6610   938.0  0.1727       2.389      0.2573
10.6383   940.0  0.1775       2.421      0.2685
10.6157   942.0  0.1826       2.454      0.2815
10.5932   944.0  0.1879       2.488      0.2963
10.5708   946.0  0.1934       2.524      0.3131
10.5485   948.0  0.1991       2.561      0.3321
10.5263   950.0  0.2051       2.600      0.3536
10.5042   952.0  0.2115       2.640      0.3779
10.4822   954.0  0.2182       2.682      0.4054
10.4603   956.0  0.2253       2.726      0.4367
10.4384   958.0  0.2327       2.772      0.4723
10.4167   960.0  0.2407       2.820      0.5129
10.3950   962.0  0.2491       2.869      0.5596
10.3734   964.0  0.2581       2.920      0.6131
10.3520   966.0  0.2676       2.972      0.6749
10.3306   968.0  0.2777       3.023      0.7461
10.3093   970.0  0.2885       3.073      0.8285
10.2881   972.0  0.2999       3.120      0.9234
10.2669   974.0  0.3120       3.160       1.032
10.2459   976.0  0.3246       3.190       1.156
10.2249   978.0  0.3377       3.205       1.294
10.2041   980.0  0.3511       3.199       1.445
10.1833   982.0  0.3643       3.165       1.603
10.1626   984.0  0.3770       3.099       1.760
10.1420   986.0  0.3886       3.001       1.904
10.1215   988.0  0.3984       2.874       2.025
10.1010   990.0  0.4056       2.729       2.112
10.0806   992.0  0.4099       2.579       2.162
10.0604   994.0  0.4108       2.437       2.175
10.0402   996.0  0.4086       2.315       2.160
10.0200   998.0  0.4037       2.220       2.127
10.0000  1000.0  0.3975       2.157       2.086
 9.9800  1002.0  0.3917       2.124       2.051
 9.9602  1004.0  0.3887       2.117       2.034
 9.9404  1006.0  0.3904       2.127       2.044
 9.9206  1008.0  0.3982       2.141       2.089
 9.9010  1010.0  0.4123       2.141       2.169
 9.8814  1012.0  0.4321       2.110       2.278
 9.8619  1014.0  0.4560       2.035       2.398
 9.8425  1016.0  0.4819       1.913       2.507
 9.8232  1018.0  0.5079       1.755       2.584
 9.8039  1020.0  0.5324       1.579       2.618
 9.7847  1022.0  0.5541       1.405       2.612
 9.7656  1024.0  0.5728       1.245       2.573
 9.7466  1026.0  0.5883       1.106       2.512
 9.7276  1028.0  0.6009      0.9869       2.438
 9.7087  1030.0  0.6107      0.8873       2.357
 9.6899  1032.0  0.6182      0.8043       2.274
 9.6712  1034.0  0.6236      0.7351       2.191
 9.6525  1036.0  0.6271      0.6775       2.110
 9.6339  1038.0  0.6289      0.6294       2.032
 9.6154  1040.0  0.6289      0.5893       1.956
 9.5969  1042.0  0.6273      0.5561       1.883
 9.5785  1044.0  0.6239      0.5287       1.813
 9.5602  1046.0  0.6187      0.5068       1.745
 9.5420  1048.0  0.6114      0.4898       1.680
 9.5238  1050.0  0.6019      0.4778       1.617
 9.5057  1052.0  0.5897      0.4707       1.558
 9.4877  1054.0  0.5746      0.4691       1.501
 9.4697  1056.0  0.5566      0.4731       1.448
 9.4518  1058.0  0.5362      0.4829       1.402
 9.4340  1060.0  0.5151      0.4976       1.365
 9.4162  1062.0  0.4968      0.5140       1.339
 9.3985  1064.0  0.4857      0.5260       1.328
 9.3809  1066.0  0.4853      0.5262       1.327
 9.3633  1068.0  0.4952      0.5102       1.328
 9.3458  1070.0  0.5118      0.4806       1.321
 9.3284  1072.0  0.5298      0.4450       1.303
 9.3110  1074.0  0.5457      0.4100       1.274
 9.2937  1076.0  0.5577      0.3796       1.237
 9.2764  1078.0  0.5657      0.3545       1.196
 9.2593  1080.0  0.5699      0.3345       1.153
 9.2421  1082.0  0.5711      0.3186       1.110
 9.2251  1084.0  0.5696      0.3061       1.067
 9.2081  1086.0  0.5660      0.2964       1.025
 9.1912  1088.0  0.5605      0.2888      0.9838
 9.1743  1090.0  0.5534      0.2831      0.9430
 9.1575  1092.0  0.5447      0.2790      0.9029
 9.1408  1094.0  0.5347      0.2762      0.8634
 9.1241  1096.0  0.5232      0.2747      0.8244
 9.1075  1098.0  0.5104      0.2743      0.7857
 9.0909  1100.0  0.4961      0.2752      0.7474
 9.0744  1102.0  0.4804      0.2772      0.7093
 9.0580  1104.0  0.4632      0.2805      0.6713
 9.0416  1106.0  0.4444      0.2852      0.6335
 9.0253  1108.0  0.4239      0.2913      0.5958
 9.0090  1110.0  0.4016      0.2991      0.5582
 8.9928  1112.0  0.3777      0.3086      0.5209
 8.9767  1114.0  0.3522      0.3202      0.4840
 8.9606  1116.0  0.3252      0.3340      0.4478
 8.9445  1118.0  0.2973      0.3501      0.4127
 8.9286  1120.0  0.2690      0.3685      0.3791
 8.9127  1122.0  0.2410      0.3890      0.3476
 8.8968  1124.0  0.2141      0.4112      0.3184
 8.8810  1126.0  0.1889      0.4347      0.2920
 8.8652  1128.0  0.1658      0.4588      0.2682
 8.8496  1130.0  0.1452      0.4831      0.2472
 8.8339  1132.0  0.1270      0.5073      0.2286
 8.8183  1134.0  0.1110      0.5309      0.2122
 8.8028  1136.0  0.0971      0.5539      0.1978
 8.7873  1138.0  0.0850      0.5760      0.1850
 8.7719  1140.0  0.0745      0.5973      0.1736
 8.7566  1142.0  0.0653      0.6178      0.1634
 8.7413  1144.0  0.0574      0.6374      0.1543
 8.7260  1146.0  0.0505      0.6562      0.1461
 8.7108  1148.0  0.0444      0.6742      0.1386
 8.6957  1150.0  0.0391      0.6915      0.1318
 8.6806  1152.0  0.0344      0.7080      0.1256
 8.6655  1154.0  0.0303      0.7239      0.1200
 8.6505  1156.0  0.0267      0.7392      0.1147
 8.6356  1158.0  0.0235      0.7538      0.1099
 8.6207  1160.0  0.0207      0.7679      0.1054
 8.6059  1162.0  0.0182      0.7815      0.1013
 8.5911  1164.0  0.0160      0.7946     0.09742
 8.5763  1166.0  0.0140      0.8072     0.09381
 8.5616  1168.0  0.0123      0.8193     0.09043
 8.5470  1170.0  0.0108      0.8311     0.08727
 8.5324  1172.0  0.0094      0.8424     0.08430
 8.5179  1174.0  0.0082      0.8534     0.08150
 8.5034  1176.0  0.0071      0.8641     0.07886
 8.4890  1178.0  0.0061      0.8744     0.07637
 8.4746  1180.0  0.0053      0.8843     0.07401
 8.4602  1182.0  0.0046      0.8940     0.07178
 8.4459  1184.0  0.0039      0.9034     0.06966
 8.4317  1186.0  0.0033      0.9125     0.06765
 8.4175  1188.0  0.0028      0.9214     0.06574
 8.4034  1190.0  0.0024      0.9300     0.06392
 8.3893  1192.0  0.0020      0.9383     0.06219
 8.3752  1194.0  0.0017      0.9465     0.06053
 8.3612  1196.0  0.0015      0.9544     0.05895
 8.3472  1198.0  0.0012      0.9621     0.05744
 8.3333  1200.0  0.0010      0.9696     0.05599
 8.3195  1202.0  0.0009      0.9770     0.05461
 8.3056  1204.0  0.0008      0.9841     0.05328
 8.2919  1206.0  0.0007      0.9911     0.05201
 8.2781  1208.0  0.0006      0.9979     0.05079
 8.2645  1210.0  0.0006       1.005     0.04961
 8.2508  1212.0  0.0006       1.011     0.04848
 8.2372  1214.0  0.0006       1.017     0.04740
 8.2237  1216.0  0.0007       1.024     0.04635
 8.2102  1218.0  0.0007       1.030     0.04534
 8.1967  1220.0  0.0008       1.036     0.04437
 8.1833  1222.0  0.0009       1.041     0.04344
 8.1699  1224.0  0.0010       1.047     0.04253
 8.1566  1226.0  0.0011       1.052     0.04166
 8.1433  1228.0  0.0012       1.058     0.04082
 8.1301  1230.0  0.0013       1.063     0.04000
 8.1169  1232.0  0.0015       1.068     0.03922
 8.1037  1234.0  0.0016       1.074     0.03845
 8.0906  1236.0  0.0018       1.079     0.03772
 8.0775  1238.0  0.0019       1.083     0.03700
 8.0645  1240.0  0.0021       1.088     0.03631
 8.0515  1242.0  0.0023       1.093     0.03564
 8.0386  1244.0  0.0024       1.098     0.03499
 8.0257  1246.0  0.0026       1.102     0.03436
 8.0128  1248.0  0.0028       1.107     0.03375
 8.0000  1250.0  0.0030       1.111     0.03315
 7.9872  1252.0  0.0032       1.115     0.03257
 7.9745  1254.0  0.0034       1.119     0.03201
 7.9618  1256.0  0.0036       1.124     0.03147
 7.9491  1258.0  0.0038       1.128     0.03094
 7.9365  1260.0  0.0040       1.132     0.03042
 7.9239  1262.0  0.0042       1.136     0.02992
 7.9114  1264.0  0.0044       1.139     0.02944
 7.8989  1266.0  0.0046       1.143     0.02896
 7.8864  1268.0  0.0049       1.147     0.02850
 7.8740  1270.0  0.0051       1.151     0.02805
 7.8616  1272.0  0.0053       1.154     0.02761
 7.8493  1274.0  0.0055       1.158     0.02718
 7.8370  1276.0  0.0057       1.161     0.02677
 7.8247  1278.0  0.0059       1.165     0.02636
 7.8125  1280.0  0.0062       1.168     0.02596
 7.8003  1282.0  0.0064       1.171     0.02558
 7.7882  1284.0  0.0066       1.175     0.02520
 7.7760  1286.0  0.0068       1.178     0.02483
 7.7640  1288.0  0.0070       1.181     0.02447
 7.7519  1290.0  0.0072       1.184     0.02412
 7.7399  1292.0  0.0075       1.187     0.02378
 7.7280  1294.0  0.0077       1.190     0.02344
 7.7160  1296.0  0.0079       1.193     0.02312
 7.7042  1298.0  0.0081       1.196     0.02280
 7.6923  1300.0  0.0083       1.199     0.02248
 7.6805  1302.0  0.0085       1.202     0.02218
 7.6687  1304.0  0.0087       1.205     0.02188
 7.6570  1306.0  0.0090       1.208     0.02158
 7.6453  1308.0  0.0092       1.211     0.02130
 7.6336  1310.0  0.0094       1.213     0.02102
 7.6220  1312.0  0.0096       1.216     0.02074
 7.6104  1314.0  0.0098       1.219     0.02048
 7.5988  1316.0  0.0100       1.221     0.02021
 7.5873  1318.0  0.0102       1.224     0.01995
 7.5758  1320.0  0.0104       1.226     0.01970
 7.5643  1322.0  0.0106       1.229     0.01946
 7.5529  1324.0  0.0108       1.231     0.01921
 7.5415  1326.0  0.0110       1.234     0.01898
 7.5301  1328.0  0.0112       1.236     0.01874
 7.5188  1330.0  0.0114       1.238     0.01852
 7.5075  1332.0  0.0116       1.241     0.01829
 7.4963  1334.0  0.0118       1.243     0.01807
 7.4850  1336.0  0.0120       1.245     0.01786
 7.4738  1338.0  0.0122       1.248     0.01765
 7.4627  1340.0  0.0124       1.250     0.01744
 7.4516  1342.0  0.0126       1.252     0.01724
 7.4405  1344.0  0.0128       1.254     0.01704
 7.4294  1346.0  0.0130       1.256     0.01684
 7.4184  1348.0  0.0132       1.259     0.01665
 7.4074  1350.0  0.0133       1.261     0.01646
 7.3964  1352.0  0.0135       1.263     0.01628
 7.3855  1354.0  0.0137       1.265     0.01609
 7.3746  1356.0  0.0139       1.267     0.01592
 7.3638  1358.0  0.0141       1.269     0.01574
 7.3529  1360.0  0.0143       1.271     0.01557
 7.3421  1362.0  0.0144       1.273     0.01540
 7.3314  1364.0  0.0146       1.275     0.01523
 7.3206  1366.0  0.0148       1.277     0.01507
 7.3099  1368.0  0.0150       1.278     0.01491
 7.2993  1370.0  0.0152       1.280     0.01475
 7.2886  1372.0  0.0153       1.282     0.01459
 7.2780  1374.0  0.0155       1.284     0.01444
 7.2674  1376.0  0.0157       1.286     0.01429
 7.2569  1378.0  0.0158       1.288     0.01414
 7.2464  1380.0  0.0160       1.289     0.01400
 7.2359  1382.0  0.0162       1.291     0.01385
 7.2254  1384.0  0.0164       1.293     0.01371
 7.2150  1386.0  0.0165       1.295     0.01358
 7.2046  1388.0  0.0167       1.296     0.01344
 7.1942  1390.0  0.0168       1.298     0.01330
 7.1839  1392.0  0.0170       1.300     0.01317
 7.1736  1394.0  0.0172       1.301     0.01304
 7.1633  1396.0  0.0173       1.303     0.01292
 7.1531  1398.0  0.0175       1.305     0.01279
 7.1429  1400.0  0.0176       1.306     0.01267
 7.1327  1402.0  0.0178       1.308     0.01254
 7.1225  1404.0  0.0180       1.309     0.01242
 7.1124  1406.0  0.0181       1.311     0.01230
 7.1023  1408.0  0.0183       1.312     0.01219
 7.0922  1410.0  0.0184       1.314     0.01207
 7.0822  1412.0  0.0186       1.315     0.01196
 7.0721  1414.0  0.0187       1.317     0.01185
 7.0621  1416.0  0.0189       1.318     0.01174
 7.0522  1418.0  0.0190       1.320     0.01163
 7.0423  1420.0  0.0192       1.321     0.01152
 7.0323  1422.0  0.0193       1.323     0.01142
 7.0225  1424.0  0.0195       1.324     0.01131
 7.0126  1426.0  0.0196       1.325     0.01121
 7.0028  1428.0  0.0198       1.327     0.01111
 6.9930  1430.0  0.0199       1.328     0.01101
 6.9832  1432.0  0.0200       1.330     0.01091
 6.9735  1434.0  0.0202       1.331     0.01082
 6.9638  1436.0  0.0203       1.332     0.01072
 6.9541  1438.0  0.0205       1.334     0.01063
 6.9444  1440.0  0.0206       1.335     0.01054
 6.9348  1442.0  0.0207       1.336     0.01044
 6.9252  1444.0  0.0209       1.338     0.01035
 6.9156  1446.0  0.0210       1.339     0.01026
 6.9061  1448.0  0.0211       1.340     0.01018
 6.8966  1450.0  0.0213       1.341     0.01009
 6.8871  1452.0  0.0214       1.343     0.01000
 6.8776  1454.0  0.0215       1.344    0.009921
 6.8681  1456.0  0.0217       1.345    0.009837
 6.8587  1458.0  0.0218       1.346    0.009755
 6.8493  1460.0  0.0219       1.347    0.009674
 6.8399  1462.0  0.0220       1.349    0.009594
 6.8306  1464.0  0.0222       1.350    0.009515
 6.8213  1466.0  0.0223       1.351    0.009437
 6.8120  1468.0  0.0224       1.352    0.009360
 6.8027  1470.0  0.0226       1.353    0.009284
 6.7935  1472.0  0.0227       1.354    0.009209
 6.7843  1474.0  0.0228       1.356    0.009135
 6.7751  1476.0  0.0229       1.357    0.009061
 6.7659  1478.0  0.0230       1.358    0.008989
 6.7568  1480.0  0.0232       1.359    0.008918
 6.7476  1482.0  0.0233       1.360    0.008847
 6.7385  1484.0  0.0234       1.361    0.008778
 6.7295  1486.0  0.0235       1.362    0.008709
 6.7204  1488.0  0.0236       1.363    0.008641
 6.7114  1490.0  0.0238       1.364    0.008574
 6.7024  1492.0  0.0239       1.365    0.008507
 6.6934  1494.0  0.0240       1.366    0.008442
 6.6845  1496.0  0.0241       1.367    0.008377
 6.6756  1498.0  0.0242       1.368    0.008313
 6.6667  1500.0  0.0243       1.369    0.008249
