data provided by Paul Lucey in 2006
derived using techniques of Lucey 1998
Forsterite, Fo= 91.8000
minimum grain size (microns)= 0.000000
maximum grain size=(microns) 45.0000
column 1= wavelength, micrometers
column 2= real index
column 3= imaginary index
 
     0.300000      1.65074 8.37297e-005
     0.305000      1.65074 7.92824e-005
     0.310000      1.65074 7.36897e-005
     0.315000      1.65074 6.72014e-005
     0.320000      1.65074 6.07186e-005
     0.325000      1.65074 5.49370e-005
     0.330000      1.65074 4.97815e-005
     0.335000      1.65074 4.50360e-005
     0.340000      1.65074 4.08857e-005
     0.345000      1.65074 3.75660e-005
     0.350000      1.65074 3.46819e-005
     0.355000      1.65074 3.19929e-005
     0.360000      1.65074 2.99385e-005
     0.365000      1.65074 2.81841e-005
     0.370000      1.65074 2.67844e-005
     0.375000      1.65074 2.52991e-005
     0.380000      1.65074 2.42298e-005
     0.385000      1.65074 2.33827e-005
     0.390000      1.65074 2.25115e-005
     0.395000      1.65074 2.15128e-005
     0.400000      1.65074 2.06426e-005
     0.405000      1.65074 2.00625e-005
     0.410000      1.65074 1.86222e-005
     0.415000      1.65074 1.79451e-005
     0.420000      1.65074 1.74105e-005
     0.425000      1.65074 1.68594e-005
     0.430000      1.65074 1.61842e-005
     0.435000      1.65074 1.57111e-005
     0.440000      1.65074 1.52240e-005
     0.445000      1.65074 1.48360e-005
     0.450000      1.65074 1.46629e-005
     0.455000      1.65074 1.43679e-005
     0.460000      1.65074 1.40058e-005
     0.465000      1.65074 1.35757e-005
     0.470000      1.65074 1.33097e-005
     0.475000      1.65074 1.30356e-005
     0.480000      1.65074 1.26335e-005
     0.485000      1.65074 1.24030e-005
     0.490000      1.65074 1.22259e-005
     0.495000      1.65074 1.21049e-005
     0.500000      1.65074 1.17919e-005
     0.505000      1.65074 1.13458e-005
     0.510000      1.65074 1.10157e-005
     0.515000      1.65074 1.08057e-005
     0.520000      1.65074 1.06526e-005
     0.525000      1.65074 1.04316e-005
     0.530000      1.65074 1.03996e-005
     0.535000      1.65074 1.02335e-005
     0.540000      1.65074 1.01295e-005
     0.545000      1.65074 1.00215e-005
     0.550000      1.65074 9.77545e-006
     0.555000      1.65074 9.79546e-006
     0.560000      1.65074 9.67743e-006
     0.565000      1.65074 9.69444e-006
     0.570000      1.65074 9.63943e-006
     0.575000      1.65074 9.58342e-006
     0.580000      1.65074 9.59542e-006
     0.585000      1.65074 9.60642e-006
     0.590000      1.65074 9.61542e-006
     0.595000      1.65074 9.55041e-006
     0.600000      1.65074 9.63143e-006
     0.605000      1.65074 9.71144e-006
     0.610000      1.65074 9.56741e-006
     0.615000      1.65074 9.79646e-006
     0.620000      1.65074 9.87647e-006
     0.625000      1.65074 9.95549e-006
     0.630000      1.65074 9.95849e-006
     0.635000      1.65074 9.95949e-006
     0.640000      1.65074 1.01165e-005
     0.645000      1.65074 1.00365e-005
     0.650000      1.65074 1.00345e-005
     0.655000      1.65074 9.95149e-006
     0.660000      1.65074 1.00275e-005
     0.665000      1.65074 1.00215e-005
     0.670000      1.65074 1.00155e-005
     0.675000      1.65074 1.00075e-005
     0.680000      1.65074 1.01645e-005
     0.685000      1.65074 1.01555e-005
     0.690000      1.65074 1.03136e-005
     0.695000      1.65074 1.04736e-005
     0.700000      1.65074 1.05496e-005
     0.705000      1.65074 1.07116e-005
     0.710000      1.65074 1.07867e-005
     0.715000      1.65074 1.09507e-005
     0.720000      1.65074 1.11157e-005
     0.725000      1.65074 1.12818e-005
     0.730000      1.65074 1.16288e-005
     0.735000      1.65074 1.19789e-005
     0.740000      1.65074 1.20599e-005
     0.745000      1.65074 1.23250e-005
     0.750000      1.65074 1.25915e-005
     0.755000      1.65074 1.30466e-005
     0.760000      1.65074 1.33207e-005
     0.765000      1.65074 1.36907e-005
     0.770000      1.65074 1.40648e-005
     0.775000      1.65074 1.45379e-005
     0.780000      1.65074 1.49200e-005
     0.785000      1.65074 1.52100e-005
     0.790000      1.65074 1.55991e-005
     0.795000      1.65074 1.60902e-005
     0.800000      1.65074 1.65873e-005
     0.805000      1.65074 1.69894e-005
     0.810000      1.65074 1.73955e-005
     0.815000      1.65074 1.79061e-005
     0.820000      1.65074 1.82201e-005
     0.825000      1.65074 1.86372e-005
     0.830000      1.65074 1.90593e-005
     0.835000      1.65074 1.95884e-005
     0.840000      1.65074 1.99145e-005
     0.845000      1.65074 2.01375e-005
     0.850000      1.65074 2.07857e-005
     0.855000      1.65074 2.11207e-005
     0.860000      1.65074 2.15648e-005
     0.865000      1.65074 2.19059e-005
     0.870000      1.65074 2.22490e-005
     0.875000      1.65074 2.29216e-005
     0.880000      1.65074 2.31626e-005
     0.885000      1.65074 2.35147e-005
     0.890000      1.65074 2.38698e-005
     0.895000      1.65074 2.45619e-005
     0.900000      1.65074 2.50370e-005
     0.905000      1.65074 2.54021e-005
     0.910000      1.65074 2.61112e-005
     0.915000      1.65074 2.65983e-005
     0.920000      1.65074 2.73205e-005
     0.925000      1.65074 2.81641e-005
     0.930000      1.65074 2.87833e-005
     0.935000      1.65074 2.96434e-005
     0.940000      1.65074 3.07477e-005
     0.945000      1.65074 3.16248e-005
     0.950000      1.65074 3.28716e-005
     0.955000      1.65074 3.36467e-005
     0.960000      1.65074 3.51590e-005
     0.965000      1.65074 3.60752e-005
     0.970000      1.65074 3.73705e-005
     0.975000      1.65074 3.86782e-005
     0.980000      1.65074 3.98745e-005
     0.985000      1.65074 4.13348e-005
     0.990000      1.65074 4.25555e-005
     0.995000      1.65074 4.37898e-005
      1.00000      1.65074 4.51630e-005
      1.00500      1.65074 4.62913e-005
      1.01000      1.65074 4.76900e-005
      1.01500      1.65074 4.88413e-005
      1.02000      1.65074 5.00025e-005
      1.02500      1.65074 5.10407e-005
      1.03000      1.65074 5.19559e-005
      1.03500      1.65074 5.27436e-005
      1.04000      1.65074 5.34017e-005
      1.04500      1.65074 5.43359e-005
      1.05000      1.65074 5.45959e-005
      1.05500      1.65074 5.47189e-005
      1.06000      1.65074 5.52531e-005
      1.06500      1.65074 5.49620e-005
      1.07000      1.65074 5.50810e-005
      1.07500      1.65074 5.43649e-005
      1.08000      1.65074 5.40588e-005
      1.08500      1.65074 5.36087e-005
      1.09000      1.65074 5.31526e-005
      1.09500      1.65074 5.22680e-005
      1.10000      1.65074 5.12327e-005
      1.10500      1.65074 5.06136e-005
      1.11000      1.65074 4.99885e-005
      1.11500      1.65074 4.90703e-005
      1.12000      1.65074 4.84302e-005
      1.12500      1.65074 4.76400e-005
      1.13000      1.65074 4.68424e-005
      1.13500      1.65074 4.61812e-005
      1.14000      1.65074 4.55141e-005
      1.14500      1.65074 4.49850e-005
      1.15000      1.65074 4.44509e-005
      1.15500      1.65074 4.39108e-005
      1.16000      1.65074 4.36597e-005
      1.16500      1.65074 4.31096e-005
      1.17000      1.65074 4.24060e-005
      1.17500      1.65074 4.24380e-005
      1.18000      1.65074 4.21709e-005
      1.18500      1.65074 4.17508e-005
      1.19000      1.65074 4.14758e-005
      1.19500      1.65074 4.13488e-005
      1.20000      1.65074 4.13698e-005
      1.20500      1.65074 4.10857e-005
      1.21000      1.65074 4.09517e-005
      1.21500      1.65074 4.08137e-005
      1.22000      1.65074 4.03676e-005
      1.22500      1.65074 4.02235e-005
      1.23000      1.65074 3.99235e-005
      1.23500      1.65074 4.00855e-005
      1.24000      1.65074 3.96244e-005
      1.24500      1.65074 3.91583e-005
      1.25000      1.65074 3.88443e-005
      1.25500      1.65074 3.86842e-005
      1.26000      1.65074 3.82061e-005
      1.26500      1.65074 3.81991e-005
      1.27000      1.65074 3.75540e-005
      1.27500      1.65074 3.72234e-005
      1.28000      1.65074 3.70484e-005
      1.28500      1.65074 3.65503e-005
      1.29000      1.65074 3.62082e-005
      1.29500      1.65074 3.57011e-005
      1.30000      1.65074 3.53521e-005
      1.30500      1.65074 3.50000e-005
      1.31000      1.65074 3.41538e-005
      1.31500      1.65074 3.39558e-005
      1.32000      1.65074 3.34277e-005
      1.32500      1.65074 3.28946e-005
      1.33000      1.65074 3.23580e-005
      1.33500      1.65074 3.19819e-005
      1.34000      1.65074 3.14358e-005
      1.34500      1.65074 3.08857e-005
      1.35000      1.65074 3.04976e-005
      1.35500      1.65074 3.02746e-005
      1.36000      1.65074 2.97124e-005
      1.36500      1.65074 2.93154e-005
      1.37000      1.65074 2.87442e-005
      1.37500      1.65074 2.79991e-005
      1.38000      1.65074 2.77601e-005
      1.38500      1.65074 2.73475e-005
      1.39000      1.65074 2.67604e-005
      1.39500      1.65074 2.61682e-005
      1.40000      1.65074 2.53991e-005
      1.40500      1.65074 2.49710e-005
      1.41000      1.65074 2.43659e-005
      1.41500      1.65074 2.39308e-005
      1.42000      1.65074 2.33167e-005
      1.42500      1.65074 2.26995e-005
      1.43000      1.65074 2.20769e-005
      1.43500      1.65074 2.19779e-005
      1.44000      1.65074 2.15248e-005
      1.44500      1.65074 2.10677e-005
      1.45000      1.65074 2.06086e-005
      1.45500      1.65074 2.03226e-005
      1.46000      1.65074 1.96784e-005
      1.46500      1.65074 1.93874e-005
      1.47000      1.65074 1.90943e-005
      1.47500      1.65074 1.87983e-005
      1.48000      1.65074 1.85002e-005
      1.48500      1.65074 1.80191e-005
      1.49000      1.65074 1.75340e-005
      1.49500      1.65074 1.74105e-005
      1.50000      1.65074 1.71034e-005
      1.50500      1.65074 1.67934e-005
      1.51000      1.65074 1.64803e-005
      1.51500      1.65074 1.63503e-005
      1.52000      1.65074 1.60342e-005
      1.52500      1.65074 1.59012e-005
      1.53000      1.65074 1.55811e-005
      1.53500      1.65074 1.54451e-005
      1.54000      1.65074 1.51200e-005
      1.54500      1.65074 1.51690e-005
      1.55000      1.65074 1.48410e-005
      1.55500      1.65074 1.46999e-005
      1.56000      1.65074 1.45579e-005
      1.56500      1.65074 1.42238e-005
      1.57000      1.65074 1.42689e-005
      1.57500      1.65074 1.41228e-005
      1.58000      1.65074 1.39758e-005
      1.58500      1.65074 1.38268e-005
      1.59000      1.65074 1.36777e-005
      1.59500      1.65074 1.37207e-005
      1.60000      1.65074 1.35697e-005
      1.60500      1.65074 1.34177e-005
      1.61000      1.65074 1.32637e-005
      1.61500      1.65074 1.31086e-005
      1.62000      1.65074 1.35427e-005
      1.62500      1.65074 1.31896e-005
      1.63000      1.65074 1.32306e-005
      1.63500      1.65074 1.30726e-005
      1.64000      1.65074 1.31126e-005
      1.64500      1.65074 1.29526e-005
      1.65000      1.65074 1.29926e-005
      1.65500      1.65074 1.30316e-005
      1.66000      1.65074 1.28696e-005
      1.66500      1.65074 1.29086e-005
      1.67000      1.65074 1.29466e-005
      1.67500      1.65074 1.29856e-005
      1.68000      1.65074 1.32286e-005
      1.68500      1.65074 1.30636e-005
      1.69000      1.65074 1.31016e-005
      1.69500      1.65074 1.29356e-005
      1.70000      1.65074 1.29736e-005
      1.70500      1.65074 1.30116e-005
      1.71000      1.65074 1.30496e-005
      1.71500      1.65074 1.30876e-005
      1.72000      1.65074 1.31256e-005
      1.72500      1.65074 1.31646e-005
      1.73000      1.65074 1.32016e-005
      1.73500      1.65074 1.32396e-005
      1.74000      1.65074 1.32777e-005
      1.74500      1.65074 1.33167e-005
      1.75000      1.65074 1.33547e-005
      1.75500      1.65074 1.33927e-005
      1.76000      1.65074 1.34317e-005
      1.76500      1.65074 1.34697e-005
      1.77000      1.65074 1.35077e-005
      1.77500      1.65074 1.35457e-005
      1.78000      1.65074 1.35837e-005
      1.78500      1.65074 1.36217e-005
      1.79000      1.65074 1.36597e-005
      1.79500      1.65074 1.36987e-005
      1.80000      1.65074 1.37357e-005
      1.80500      1.65074 1.37748e-005
      1.81000      1.65074 1.38128e-005
      1.81500      1.65074 1.38508e-005
      1.82000      1.65074 1.38888e-005
      1.82500      1.65074 1.39268e-005
      1.83000      1.65074 1.37437e-005
      1.83500      1.65074 1.37808e-005
      1.84000      1.65074 1.38178e-005
      1.84500      1.65074 1.36327e-005
      1.85000      1.65074 1.38938e-005
      1.85500      1.65074 1.39308e-005
      1.86000      1.65074 1.39688e-005
      1.86500      1.65074 1.40058e-005
      1.87000      1.65074 1.42709e-005
      1.87500      1.65074 1.43079e-005
      1.88000      1.65074 1.38908e-005
      1.88500      1.65074 1.41568e-005
      1.89000      1.65074 1.44229e-005
      1.89500      1.65074 1.44609e-005
      1.90000      1.65074 1.44999e-005
      1.90500      1.65074 1.47690e-005
      1.91000      1.65074 1.45749e-005
      1.91500      1.65074 1.46139e-005
      1.92000      1.65074 1.46519e-005
      1.92500      1.65074 1.49240e-005
      1.93000      1.65074 1.49620e-005
      1.93500      1.65074 1.50010e-005
      1.94000      1.65074 1.50400e-005
      1.94500      1.65074 1.50790e-005
      1.95000      1.65074 1.51180e-005
      1.95500      1.65074 1.51570e-005
      1.96000      1.65074 1.51950e-005
      1.96500      1.65074 1.52340e-005
      1.97000      1.65074 1.52721e-005
      1.97500      1.65074 1.50720e-005
      1.98000      1.65074 1.51100e-005
      1.98500      1.65074 1.51480e-005
      1.99000      1.65074 1.51860e-005
      1.99500      1.65074 1.52240e-005
      2.00000      1.65074 1.52621e-005
      2.00500      1.65074 1.53001e-005
      2.01000      1.65074 1.50950e-005
      2.01500      1.65074 1.51320e-005
      2.02000      1.65074 1.49250e-005
      2.02500      1.65074 1.52070e-005
      2.03000      1.65074 1.49990e-005
      2.03500      1.65074 1.50360e-005
      2.04000      1.65074 1.50730e-005
      2.04500      1.65074 1.51100e-005
      2.05000      1.65074 1.51470e-005
      2.05500      1.65074 1.49350e-005
      2.06000      1.65074 1.49710e-005
      2.06500      1.65074 1.50070e-005
      2.07000      1.65074 1.50430e-005
      2.07500      1.65074 1.50800e-005
      2.08000      1.65074 1.51160e-005
      2.08500      1.65074 1.49000e-005
      2.09000      1.65074 1.51880e-005
      2.09500      1.65074 1.52250e-005
      2.10000      1.65074 1.50070e-005
      2.10500      1.65074 1.50430e-005
      2.11000      1.65074 1.53341e-005
      2.11500      1.65074 1.51140e-005
      2.12000      1.65074 1.51490e-005
      2.12500      1.65074 1.51850e-005
      2.13000      1.65074 1.49630e-005
      2.13500      1.65074 1.49980e-005
      2.14000      1.65074 1.50330e-005
      2.14500      1.65074 1.50680e-005
      2.15000      1.65074 1.48430e-005
      2.15500      1.65074 1.48780e-005
      2.16000      1.65074 1.49120e-005
      2.16500      1.65074 1.49470e-005
      2.17000      1.65074 1.52440e-005
      2.17500      1.65074 1.52791e-005
      2.18000      1.65074 1.53141e-005
      2.18500      1.65074 1.53491e-005
      2.19000      1.65074 1.53841e-005
      2.19500      1.65074 1.54201e-005
      2.20000      1.65074 1.51890e-005
      2.20500      1.65074 1.54901e-005
      2.21000      1.65074 1.55251e-005
      2.21500      1.65074 1.55601e-005
      2.22000      1.65074 1.53271e-005
      2.22500      1.65074 1.56301e-005
      2.23000      1.65074 1.56651e-005
      2.23500      1.65074 1.57011e-005
      2.24000      1.65074 1.57361e-005
      2.24500      1.65074 1.57712e-005
      2.25000      1.65074 1.58062e-005
      2.25500      1.65074 1.58412e-005
      2.26000      1.65074 1.58762e-005
      2.26500      1.65074 1.59112e-005
      2.27000      1.65074 1.59472e-005
      2.27500      1.65074 1.59822e-005
      2.28000      1.65074 1.60172e-005
      2.28500      1.65074 1.63283e-005
      2.29000      1.65074 1.63653e-005
      2.29500      1.65074 1.64003e-005
      2.30000      1.65074 1.64363e-005
      2.30500      1.65074 1.64713e-005
      2.31000      1.65074 1.65073e-005
      2.31500      1.65074 1.65443e-005
      2.32000      1.65074 1.68594e-005
      2.32500      1.65074 1.68964e-005
      2.33000      1.65074 1.69324e-005
      2.33500      1.65074 1.72535e-005
      2.34000      1.65074 1.70054e-005
      2.34500      1.65074 1.67574e-005
      2.35000      1.65074 1.65093e-005
      2.35500      1.65074 1.65433e-005
      2.36000      1.65074 1.62933e-005
      2.36500      1.65074 1.66133e-005
      2.37000      1.65074 1.63623e-005
      2.37500      1.65074 1.63963e-005
      2.38000      1.65074 1.67193e-005
      2.38500      1.65074 1.67554e-005
      2.39000      1.65074 1.67894e-005
      2.39500      1.65074 1.68254e-005
      2.40000      1.65074 1.68594e-005
      2.40500      1.65074 1.66033e-005
      2.41000      1.65074 1.69304e-005
      2.41500      1.65074 1.69654e-005
      2.42000      1.65074 1.69994e-005
      2.42500      1.65074 1.70354e-005
      2.43000      1.65074 1.67764e-005
      2.43500      1.65074 1.71054e-005
      2.44000      1.65074 1.71414e-005
      2.44500      1.65074 1.71764e-005
      2.45000      1.65074 1.69144e-005
      2.45500      1.65074 1.72464e-005
      2.46000      1.65074 1.72815e-005
      2.46500      1.65074 1.73165e-005
      2.47000      1.65074 1.73515e-005
      2.47500      1.65074 1.79871e-005
      2.48000      1.65074 1.77230e-005
      2.48500      1.65074 1.77581e-005
      2.49000      1.65074 1.74925e-005
      2.49500      1.65074 1.75270e-005
      2.50000      1.65074 1.75620e-005
      2.50500      1.65074 1.75980e-005
      2.51000      1.65074 1.76330e-005
      2.51500      1.65074 1.73635e-005
      2.52000      1.65074 1.77030e-005
      2.52500      1.65074 1.74315e-005
      2.53000      1.65074 1.71604e-005
      2.53500      1.65074 1.71934e-005
      2.54000      1.65074 1.69204e-005
      2.54500      1.65074 1.69534e-005
      2.55000      1.65074 1.66783e-005
      2.55500      1.65074 1.64013e-005
      2.56000      1.65074 1.67433e-005
      2.56500      1.65074 1.64653e-005
      2.57000      1.65074 1.61852e-005
      2.57500      1.65074 1.59052e-005
      2.58000      1.65074 1.56241e-005
      2.58500      1.65074 1.56541e-005
      2.59000      1.65074 1.59982e-005
      2.59500      1.65074 1.57141e-005
      2.60000      1.65074 1.48010e-005
