data provided by Paul Lucey in 2006
derived using techniques of Lucey 1998
Forsterite, Fo= 80.0000
minimum grain size (microns)= 250.000
maximum grain size=(microns) 1200.00
column 1= wavelength, micrometers
column 2= real index
column 3= imaginary index
 
     0.221100      1.67340 1.43419e-005
     0.229100      1.67340 1.65263e-005
     0.236100      1.67340 1.71704e-005
     0.242100      1.67340 1.96724e-005
     0.248100      1.67340 2.09707e-005
     0.253600      1.67340 2.25315e-005
     0.258600      1.67340 2.28026e-005
     0.263600      1.67340 2.40738e-005
     0.268600      1.67340 2.47459e-005
     0.273100      1.67340 2.48770e-005
     0.277100      1.67340 2.46189e-005
     0.281100      1.67340 2.52550e-005
     0.285100      1.67340 2.52280e-005
     0.289100      1.67340 2.62673e-005
     0.293100      1.67340 2.69894e-005
     0.297100      1.67340 2.71894e-005
     0.301100      1.67340 2.71344e-005
     0.305100      1.67340 2.69434e-005
     0.309100      1.67340 2.66353e-005
     0.313100      1.67340 2.77050e-005
     0.317100      1.67340 2.72835e-005
     0.321100      1.67340 2.68764e-005
     0.325100      1.67340 2.74790e-005
     0.329100      1.67340 2.55971e-005
     0.333100      1.67340 2.46849e-005
     0.337100      1.67340 2.36447e-005
     0.341100      1.67340 2.26345e-005
     0.345100      1.67340 2.06606e-005
     0.349100      1.67340 1.96034e-005
     0.353100      1.67340 1.74850e-005
     0.357100      1.67340 1.64433e-005
     0.360600      1.67340 1.51460e-005
     0.363600      1.67340 1.43409e-005
     0.366600      1.67340 1.45719e-005
     0.369600      1.67340 1.36917e-005
     0.372600      1.67340 1.31036e-005
     0.375600      1.67340 1.29296e-005
     0.378600      1.67340 1.24055e-005
     0.381100      1.67340 1.24395e-005
     0.383100      1.67340 1.23405e-005
     0.385100      1.67340 1.22419e-005
     0.387100      1.67340 1.22580e-005
     0.389100      1.67340 1.19339e-005
     0.391100      1.67340 1.18599e-005
     0.393100      1.67340 1.15858e-005
     0.395100      1.67340 1.15178e-005
     0.397100      1.67340 1.14948e-005
     0.399100      1.67340 1.13058e-005
     0.401100      1.67340 1.12518e-005
     0.403100      1.67340 1.12988e-005
     0.405100      1.67340 1.06176e-005
     0.407100      1.67340 1.01755e-005
     0.409100      1.67340 9.87447e-006
     0.411100      1.67340 9.99950e-006
     0.412800      1.67340 9.83247e-006
     0.415800      1.67340 9.50640e-006
     0.418800      1.67340 9.72044e-006
     0.421800      1.67340 9.34037e-006
     0.424800      1.67340 9.37637e-006
     0.427800      1.67340 9.50140e-006
     0.430800      1.67340 9.54441e-006
     0.433800      1.67340 9.36437e-006
     0.436800      1.67340 9.35537e-006
     0.439800      1.67340 9.21134e-006
     0.442800      1.67340 9.30136e-006
     0.445800      1.67340 9.29436e-006
     0.448800      1.67340 9.53341e-006
     0.451300      1.67340 9.76645e-006
     0.453300      1.67340 9.54141e-006
     0.455300      1.67340 9.69544e-006
     0.457300      1.67340 9.55341e-006
     0.459300      1.67340 9.55141e-006
     0.461300      1.67340 9.09832e-006
     0.463300      1.67340 8.96129e-006
     0.465300      1.67340 8.84427e-006
     0.467300      1.67340 8.77225e-006
     0.469300      1.67340 8.72324e-006
     0.471300      1.67340 8.66623e-006
     0.473300      1.67340 8.74025e-006
     0.475300      1.67340 8.30116e-006
     0.477300      1.67340 7.97710e-006
     0.479300      1.67340 7.83307e-006
     0.481300      1.67340 7.72404e-006
     0.483300      1.67340 7.71004e-006
     0.485300      1.67340 7.88408e-006
     0.487300      1.67340 7.77406e-006
     0.489300      1.67340 7.81706e-006
     0.491300      1.67340 7.82707e-006
     0.493300      1.67340 7.82006e-006
     0.495300      1.67340 7.90208e-006
     0.497300      1.67340 7.51400e-006
     0.499300      1.67340 7.17043e-006
     0.501300      1.67340 6.74135e-006
     0.503300      1.67340 6.37628e-006
     0.505300      1.67340 6.05821e-006
     0.507300      1.67340 5.99420e-006
     0.509300      1.67340 5.85217e-006
     0.511300      1.67340 5.78816e-006
     0.513300      1.67340 5.65013e-006
     0.515300      1.67340 5.55911e-006
     0.517300      1.67340 5.52911e-006
     0.519300      1.67340 5.55311e-006
     0.521300      1.67340 5.44909e-006
     0.523300      1.67340 5.24705e-006
     0.525300      1.67340 5.21904e-006
     0.527300      1.67340 5.19004e-006
     0.529300      1.67340 4.99000e-006
     0.531300      1.67340 4.91098e-006
     0.533300      1.67340 4.89698e-006
     0.535300      1.67340 4.68994e-006
     0.537300      1.67340 4.54791e-006
     0.539300      1.67340 4.35287e-006
     0.541300      1.67340 4.23885e-006
     0.543300      1.67340 4.15883e-006
     0.545300      1.67340 4.02581e-006
     0.547300      1.67340 3.96479e-006
     0.549300      1.67340 3.85477e-006
     0.551300      1.67340 3.73675e-006
     0.553300      1.67340 3.67073e-006
     0.555300      1.67340 3.67874e-006
     0.557300      1.67340 3.60172e-006
     0.559300      1.67340 3.59872e-006
     0.561300      1.67340 3.56771e-006
     0.563300      1.67340 3.51170e-006
     0.565300      1.67340 3.56571e-006
     0.567300      1.67340 3.55271e-006
     0.569300      1.67340 3.59072e-006
     0.571300      1.67340 3.70374e-006
     0.573300      1.67340 3.63473e-006
     0.575300      1.67340 3.70374e-006
     0.577300      1.67340 3.73975e-006
     0.579300      1.67340 3.77275e-006
     0.581300      1.67340 3.89378e-006
     0.583300      1.67340 3.91878e-006
     0.585300      1.67340 3.92679e-006
     0.587300      1.67340 4.05381e-006
     0.589300      1.67340 4.06181e-006
     0.591300      1.67340 4.23585e-006
     0.593300      1.67340 4.28386e-006
     0.595300      1.67340 4.31586e-006
     0.597300      1.67340 4.45189e-006
     0.599300      1.67340 4.57191e-006
     0.601100      1.67340 4.68494e-006
     0.602700      1.67340 4.67293e-006
     0.604300      1.67340 4.87798e-006
     0.605900      1.67340 4.86497e-006
     0.607500      1.67340 5.02601e-006
     0.609100      1.67340 5.12302e-006
     0.610700      1.67340 5.20504e-006
     0.612300      1.67340 5.36107e-006
     0.613900      1.67340 5.50510e-006
     0.615500      1.67340 5.58012e-006
     0.617100      1.67340 5.79616e-006
     0.618700      1.67340 5.93619e-006
     0.620300      1.67340 6.09522e-006
     0.621900      1.67340 6.22825e-006
     0.623500      1.67340 6.46329e-006
     0.625100      1.67340 6.51630e-006
     0.626700      1.67340 6.61032e-006
     0.628300      1.67340 6.76735e-006
     0.629900      1.67340 6.89638e-006
     0.631700      1.67340 6.92739e-006
     0.633700      1.67340 7.08642e-006
     0.635700      1.67340 7.20044e-006
     0.637700      1.67340 7.31996e-006
     0.639700      1.67340 7.40498e-006
     0.641700      1.67340 7.37397e-006
     0.643700      1.67340 7.21344e-006
     0.645700      1.67340 7.28246e-006
     0.647700      1.67340 7.30146e-006
     0.649700      1.67340 7.31196e-006
     0.651700      1.67340 7.27145e-006
     0.653700      1.67340 7.25445e-006
     0.655700      1.67340 7.20244e-006
     0.657700      1.67340 7.30696e-006
     0.659700      1.67340 7.17543e-006
     0.661700      1.67340 7.23245e-006
     0.663700      1.67340 7.28646e-006
     0.665700      1.67340 7.26045e-006
     0.667700      1.67340 7.42599e-006
     0.670200      1.67340 7.53001e-006
     0.673200      1.67340 7.54801e-006
     0.676200      1.67340 7.67503e-006
     0.679200      1.67340 7.86607e-006
     0.682200      1.67340 8.03111e-006
     0.685200      1.67340 8.42519e-006
     0.688200      1.67340 8.68824e-006
     0.691200      1.67340 9.09632e-006
     0.694200      1.67340 9.35437e-006
     0.697200      1.67340 9.72444e-006
     0.700200      1.67340 9.98850e-006
     0.702000      1.67340 1.02796e-005
     0.704000      1.67340 1.06426e-005
     0.706000      1.67340 1.09527e-005
     0.708000      1.67340 1.11367e-005
     0.710000      1.67340 1.16238e-005
     0.712000      1.67340 1.19849e-005
     0.714000      1.67340 1.22560e-005
     0.716000      1.67340 1.27646e-005
     0.718000      1.67340 1.31736e-005
     0.720000      1.67340 1.36147e-005
     0.722000      1.67340 1.38348e-005
     0.724000      1.67340 1.43649e-005
     0.726000      1.67340 1.49220e-005
     0.728000      1.67340 1.53741e-005
     0.730000      1.67340 1.59682e-005
     0.732000      1.67340 1.62903e-005
     0.734000      1.67340 1.67744e-005
     0.736000      1.67340 1.74170e-005
     0.738000      1.67340 1.81891e-005
     0.740000      1.67340 1.85182e-005
     0.742000      1.67340 1.91473e-005
     0.744000      1.67340 1.98735e-005
     0.746000      1.67340 2.07947e-005
     0.748000      1.67340 2.14988e-005
     0.750500      1.67340 2.24055e-005
     0.753500      1.67340 2.39338e-005
     0.756500      1.67340 2.43299e-005
     0.759500      1.67340 2.60132e-005
     0.762500      1.67340 2.75000e-005
     0.765500      1.67340 2.89603e-005
     0.768500      1.67340 3.02155e-005
     0.771500      1.67340 3.10277e-005
     0.774500      1.67340 3.32807e-005
     0.777500      1.67340 3.46699e-005
     0.781000      1.67340 3.65673e-005
     0.785000      1.67340 3.87783e-005
     0.789000      1.67340 4.12307e-005
     0.793000      1.67340 4.29766e-005
     0.797000      1.67340 4.50710e-005
     0.801500      1.67340 4.78431e-005
     0.806500      1.67340 5.07336e-005
     0.811500      1.67340 5.35207e-005
     0.816500      1.67340 5.58072e-005
     0.822000      1.67340 5.92403e-005
     0.828000      1.67340 6.29696e-005
     0.835000      1.67340 7.06826e-005
     0.843000      1.67340 7.41828e-005
     0.851000      1.67340 7.53031e-005
     0.859000      1.67340 7.83692e-005
     0.871000      1.67340 8.37698e-005
     0.883000      1.67340 8.97415e-005
     0.894000      1.67340 9.62253e-005
     0.904000      1.67340  0.000107294
     0.914000      1.67340  0.000113896
     0.924000      1.67340  0.000125203
     0.933000      1.67340  0.000140178
     0.941000      1.67340  0.000153124
     0.949000      1.67340  0.000168134
     0.957000      1.67340  0.000179693
     0.964000      1.67340  0.000193411
     0.970000      1.67340  0.000209142
     0.976000      1.67340  0.000232446
     0.982000      1.67340  0.000254315
     0.988000      1.67340  0.000270271
     0.994000      1.67340  0.000287953
      1.00000      1.67340  0.000389157
      1.00600      1.67340  0.000368374
      1.01200      1.67340  0.000574201
      1.01800      1.67340   0.00769255
      1.02350      1.67340   0.00775028
      1.02850      1.67340   0.00780595
      1.03350      1.67340   0.00780524
      1.03850      1.67340   0.00780601
      1.04350      1.67340   0.00780530
      1.04850      1.67340   0.00781044
      1.05350      1.67340   0.00780537
      1.05850      1.67340   0.00781046
      1.06350      1.67340   0.00780543
      1.06850      1.67340   0.00788571
      1.07350      1.67340   0.00788608
      1.07850      1.67340   0.00788501
      1.08350      1.67340   0.00796248
      1.08850      1.67340   0.00788290
      1.09350      1.67340   0.00796253
      1.09850      1.67340   0.00796546
      1.10350      1.67340   0.00796258
      1.10850      1.67340   0.00796548
      1.11350      1.67340   0.00796263
      1.11850      1.67340   0.00796550
      1.12350      1.67340   0.00796551
      1.12850      1.67340   0.00796551
      1.13350      1.67340   0.00796552
      1.13850      1.67340   0.00800066
      1.14350      1.67340   0.00803155
      1.14850      1.67340   0.00799757
      1.15350      1.67340   0.00800301
      1.15850      1.67340   0.00802792
      1.16350      1.67340   0.00802071
      1.16850      1.67340   0.00809158
      1.17350      1.67340    0.0454414
      1.17850      1.67340   0.00811428
      1.18350      1.67340  0.000600899
      1.18850      1.67340  0.000526524
      1.19350      1.67340  0.000593160
      1.19850      1.67340  0.000761746
      1.20350      1.67340  0.000611054
      1.20850      1.67340  0.000466192
      1.21350      1.67340  0.000527204
      1.21850      1.67340  0.000492348
      1.22350      1.67340  0.000561786
      1.22850      1.67340  0.000456748
      1.23350      1.67340  0.000546459
      1.23850      1.67340  0.000462270
      1.24350      1.67340  0.000439474
      1.24850      1.67340  0.000421989
      1.25350      1.67340  0.000440050
      1.25850      1.67340  0.000419132
      1.26350      1.67340  0.000381623
      1.26850      1.67340  0.000396163
      1.27350      1.67340  0.000408031
      1.27850      1.67340  0.000401286
      1.28350      1.67340  0.000349803
      1.28850      1.67340  0.000354463
      1.29350      1.67340  0.000347421
      1.29850      1.67340  0.000342654
      1.30350      1.67340  0.000326257
      1.30850      1.67340  0.000318581
      1.31350      1.67340  0.000309710
      1.31850      1.67340  0.000313565
      1.32350      1.67340  0.000309877
      1.32850      1.67340  0.000284006
      1.33350      1.67340  0.000276763
      1.33850      1.67340  0.000267370
      1.34350      1.67340  0.000260706
      1.34850      1.67340  0.000252951
      1.35350      1.67340  0.000245782
      1.35850      1.67340  0.000232059
      1.36350      1.67340  0.000230043
      1.36850      1.67340  0.000218458
      1.37350      1.67340  0.000212605
      1.37850      1.67340  0.000204117
      1.38350      1.67340  0.000196778
      1.38850      1.67340  0.000205597
      1.39350      1.67340  0.000181968
      1.39850      1.67340  0.000180313
      1.40350      1.67340  0.000171566
      1.40850      1.67340  0.000166966
      1.41350      1.67340  0.000157920
      1.41850      1.67340  0.000154184
      1.42350      1.67340  0.000147595
      1.42850      1.67340  0.000142117
      1.43350      1.67340  0.000139495
      1.43850      1.67340  0.000130034
      1.44350      1.67340  0.000126262
      1.44850      1.67340  0.000120005
      1.45350      1.67340  0.000115814
      1.45850      1.67340  0.000111542
      1.46350      1.67340  0.000107561
      1.46850      1.67340  0.000102912
      1.47350      1.67340 9.65033e-005
      1.47850      1.67340 9.26865e-005
      1.48350      1.67340 8.60922e-005
      1.48850      1.67340 8.32727e-005
      1.49350      1.67340 8.04756e-005
      1.49850      1.67340 7.59602e-005
      1.50350      1.67340 7.25635e-005
      1.50850      1.67340 7.06296e-005
      1.51350      1.67340 6.61202e-005
      1.51850      1.67340 6.43599e-005
      1.52350      1.67340 6.01115e-005
      1.52850      1.67340 5.79831e-005
      1.53400      1.67340 5.38828e-005
      1.54000      1.67340 5.11127e-005
      1.54600      1.67340 4.83672e-005
      1.55200      1.67340 4.47309e-005
      1.55800      1.67340 4.28856e-005
      1.56400      1.67340 4.02956e-005
      1.57050      1.67340 3.75580e-005
      1.57750      1.67340 3.51490e-005
      1.58450      1.67340 3.23370e-005
      1.59150      1.67340 3.01325e-005
      1.59850      1.67340 2.82251e-005
      1.60550      1.67340 2.66293e-005
      1.61250      1.67340 2.49360e-005
      1.61950      1.67340 2.30596e-005
      1.62650      1.67340 2.16598e-005
      1.63350      1.67340 2.03526e-005
      1.64050      1.67340 1.89603e-005
      1.64750      1.67340 1.82151e-005
      1.65450      1.67340 1.69784e-005
      1.66150      1.67340 1.59512e-005
      1.66850      1.67340 1.49260e-005
      1.67600      1.67340 1.44299e-005
      1.68400      1.67340 1.34957e-005
      1.69200      1.67340 1.28466e-005
      1.70000      1.67340 1.23770e-005
      1.70800      1.67340 1.16538e-005
      1.71600      1.67340 1.07647e-005
      1.72400      1.67340 1.03986e-005
      1.73200      1.67340 9.67343e-006
      1.74000      1.67340 9.39238e-006
      1.74800      1.67340 8.67824e-006
      1.75600      1.67340 8.51020e-006
      1.76400      1.67340 8.26115e-006
      1.77200      1.67340 8.15513e-006
      1.78000      1.67340 7.85007e-006
      1.78800      1.67340 7.59302e-006
      1.79600      1.67340 7.21644e-006
      1.80500      1.67340 7.11142e-006
      1.81500      1.67340 6.76635e-006
      1.82500      1.67340 6.72534e-006
      1.83500      1.67340 6.75435e-006
      1.84500      1.67340 6.71134e-006
      1.85500      1.67340 6.43929e-006
      1.86500      1.67340 6.26125e-006
      1.87500      1.67340 6.17624e-006
      1.88500      1.67340 6.14523e-006
      1.89500      1.67340 6.33727e-006
      1.90500      1.67340 6.66133e-006
      1.91500      1.67340 6.68834e-006
      1.92500      1.67340 6.56031e-006
      1.93500      1.67340 6.47129e-006
      1.94500      1.67340 6.36527e-006
      1.95500      1.67340 6.31626e-006
      1.96500      1.67340 6.04421e-006
      1.97500      1.67340 6.14923e-006
      1.98500      1.67340 5.99020e-006
      1.99500      1.67340 5.83017e-006
      2.00500      1.67340 5.85117e-006
      2.01500      1.67340 5.55611e-006
      2.02500      1.67340 5.82617e-006
      2.03500      1.67340 5.67814e-006
      2.04500      1.67340 5.42208e-006
      2.05500      1.67340 5.62513e-006
      2.06500      1.67340 5.63513e-006
      2.07500      1.67340 5.58612e-006
      2.08500      1.67340 5.57912e-006
      2.09500      1.67340 5.56311e-006
      2.10500      1.67340 5.47810e-006
      2.11500      1.67340 5.18604e-006
      2.12500      1.67340 5.12502e-006
      2.13500      1.67340 5.40008e-006
      2.14500      1.67340 5.46009e-006
      2.15500      1.67340 5.46809e-006
      2.16500      1.67340 5.48410e-006
      2.17500      1.67340 5.58012e-006
      2.18500      1.67340 5.77515e-006
      2.19500      1.67340 6.28726e-006
      2.20500      1.67340 6.28926e-006
      2.21500      1.67340 6.19924e-006
      2.22500      1.67340 6.01720e-006
      2.23500      1.67340 6.07121e-006
      2.24500      1.67340 6.43129e-006
      2.25500      1.67340 6.39428e-006
      2.26500      1.67340 6.46029e-006
      2.27500      1.67340 6.37628e-006
      2.28500      1.67340 6.26325e-006
      2.29500      1.67340 7.27045e-006
      2.30500      1.67340 7.20544e-006
      2.31500      1.67340 7.29446e-006
      2.32500      1.67340 7.02541e-006
      2.33500      1.67340 7.10442e-006
      2.34500      1.67340 7.29146e-006
      2.35500      1.67340 7.65803e-006
      2.36500      1.67340 7.27446e-006
      2.37500      1.67340 7.73305e-006
      2.38600      1.67340 7.83907e-006
      2.40000      1.67340 8.18914e-006
