data provided by Paul Lucey in 2006
derived using techniques of Lucey 1998
Forsterite, Fo= 91.0000
minimum grain size (microns)= 0.000000
maximum grain size=(microns) 60.0000
column 1= wavelength, micrometers
column 2= real index
column 3= imaginary index
 
     0.221100      1.65228  0.000110348
     0.229100      1.65228  0.000107806
     0.236100      1.65228  0.000111433
     0.242100      1.65228  0.000118963
     0.248100      1.65228  0.000123667
     0.253600      1.65228  0.000129404
     0.258600      1.65228  0.000129497
     0.263600      1.65228  0.000127842
     0.268600      1.65228  0.000123022
     0.273100      1.65228  0.000113680
     0.277100      1.65228  0.000108722
     0.281100      1.65228  0.000102645
     0.285100      1.65228 9.60502e-005
     0.289100      1.65228 9.18699e-005
     0.293100      1.65228 8.75660e-005
     0.297100      1.65228 8.37257e-005
     0.301100      1.65228 7.90523e-005
     0.305100      1.65228 7.40618e-005
     0.309100      1.65228 6.90263e-005
     0.313100      1.65228 6.37848e-005
     0.317100      1.65228 5.90373e-005
     0.321100      1.65228 5.43179e-005
     0.325100      1.65228 4.88073e-005
     0.329100      1.65228 4.47319e-005
     0.333100      1.65228 4.10447e-005
     0.337100      1.65228 3.72805e-005
     0.341100      1.65228 3.37367e-005
     0.345100      1.65228 3.19269e-005
     0.349100      1.65228 2.92403e-005
     0.353100      1.65228 3.02496e-005
     0.357100      1.65228 2.86672e-005
     0.360600      1.65228 2.75130e-005
     0.363600      1.65228 2.64933e-005
     0.366600      1.65228 2.58782e-005
     0.369600      1.65228 2.48350e-005
     0.372600      1.65228 2.44649e-005
     0.375600      1.65228 2.42779e-005
     0.378600      1.65228 2.38938e-005
     0.381100      1.65228 2.38578e-005
     0.383100      1.65228 2.38658e-005
     0.385100      1.65228 2.34827e-005
     0.387100      1.65228 2.33697e-005
     0.389100      1.65228 2.29796e-005
     0.391100      1.65228 2.25855e-005
     0.393100      1.65228 2.28596e-005
     0.395100      1.65228 2.26975e-005
     0.397100      1.65228 2.25725e-005
     0.399100      1.65228 2.26065e-005
     0.401100      1.65228 2.25985e-005
     0.403100      1.65228 2.26305e-005
     0.405100      1.65228 2.20529e-005
     0.407100      1.65228 2.19589e-005
     0.409100      1.65228 2.17398e-005
     0.411100      1.65228 2.11907e-005
     0.412800      1.65228 2.16078e-005
     0.415800      1.65228 2.15578e-005
     0.418800      1.65228 2.13798e-005
     0.421800      1.65228 2.12407e-005
     0.424800      1.65228 2.12648e-005
     0.427800      1.65228 2.16268e-005
     0.430800      1.65228 2.14378e-005
     0.433800      1.65228 2.16298e-005
     0.436800      1.65228 2.16058e-005
     0.439800      1.65228 2.14498e-005
     0.442800      1.65228 2.18149e-005
     0.445800      1.65228 2.20959e-005
     0.448800      1.65228 2.15788e-005
     0.451300      1.65228 2.15648e-005
     0.453300      1.65228 2.21089e-005
     0.455300      1.65228 2.22510e-005
     0.457300      1.65228 2.20779e-005
     0.459300      1.65228 2.19019e-005
     0.461300      1.65228 2.24070e-005
     0.463300      1.65228 2.19099e-005
     0.465300      1.65228 2.17298e-005
     0.467300      1.65228 2.21909e-005
     0.469300      1.65228 2.21479e-005
     0.471300      1.65228 2.23350e-005
     0.473300      1.65228 2.17308e-005
     0.475300      1.65228 2.19159e-005
     0.477300      1.65228 2.16798e-005
     0.479300      1.65228 2.15358e-005
     0.481300      1.65228 2.15308e-005
     0.483300      1.65228 2.14308e-005
     0.485300      1.65228 2.17098e-005
     0.487300      1.65228 2.17999e-005
     0.489300      1.65228 2.20809e-005
     0.491300      1.65228 2.18339e-005
     0.493300      1.65228 2.19229e-005
     0.495300      1.65228 2.20119e-005
     0.497300      1.65228 2.18089e-005
     0.499300      1.65228 2.17989e-005
     0.501300      1.65228 2.15428e-005
     0.503300      1.65228 2.16778e-005
     0.505300      1.65228 2.20599e-005
     0.507300      1.65228 2.14538e-005
     0.509300      1.65228 2.12407e-005
     0.511300      1.65228 2.15228e-005
     0.513300      1.65228 2.16578e-005
     0.515300      1.65228 2.14908e-005
     0.517300      1.65228 2.14228e-005
     0.519300      1.65228 2.13038e-005
     0.521300      1.65228 2.16898e-005
     0.523300      1.65228 2.17218e-005
     0.525300      1.65228 2.13958e-005
     0.527300      1.65228 2.21449e-005
     0.529300      1.65228 2.19199e-005
     0.531300      1.65228 2.15888e-005
     0.533300      1.65228 2.20849e-005
     0.535300      1.65228 2.20639e-005
     0.537300      1.65228 2.16238e-005
     0.539300      1.65228 2.22289e-005
     0.541300      1.65228 2.20999e-005
     0.543300      1.65228 2.17599e-005
     0.545300      1.65228 2.21579e-005
     0.547300      1.65228 2.18139e-005
     0.549300      1.65228 2.17869e-005
     0.551300      1.65228 2.21869e-005
     0.553300      1.65228 2.22139e-005
     0.555300      1.65228 2.24020e-005
     0.557300      1.65228 2.22119e-005
     0.559300      1.65228 2.25635e-005
     0.561300      1.65228 2.26985e-005
     0.563300      1.65228 2.28886e-005
     0.565300      1.65228 2.26955e-005
     0.567300      1.65228 2.29416e-005
     0.569300      1.65228 2.35207e-005
     0.571300      1.65228 2.27696e-005
     0.573300      1.65228 2.27936e-005
     0.575300      1.65228 2.33767e-005
     0.577300      1.65228 2.32897e-005
     0.579300      1.65228 2.43859e-005
     0.581300      1.65228 2.40728e-005
     0.583300      1.65228 2.35887e-005
     0.585300      1.65228 2.38398e-005
     0.587300      1.65228 2.45509e-005
     0.589300      1.65228 2.49790e-005
     0.591300      1.65228 2.41998e-005
     0.593300      1.65228 2.48590e-005
     0.595300      1.65228 2.50010e-005
     0.597300      1.65228 2.59012e-005
     0.599300      1.65228 2.58712e-005
     0.601100      1.65228 2.54791e-005
     0.602700      1.65228 2.58412e-005
     0.604300      1.65228 2.59692e-005
     0.605900      1.65228 2.60372e-005
     0.607500      1.65228 2.62843e-005
     0.609100      1.65228 2.59962e-005
     0.610700      1.65228 2.60652e-005
     0.612300      1.65228 2.65523e-005
     0.613900      1.65228 2.69824e-005
     0.615500      1.65228 2.66303e-005
     0.617100      1.65228 2.70624e-005
     0.618700      1.65228 2.73745e-005
     0.620300      1.65228 2.70814e-005
     0.621900      1.65228 2.72725e-005
     0.623500      1.65228 2.75870e-005
     0.625100      1.65228 2.76580e-005
     0.626700      1.65228 2.84052e-005
     0.628300      1.65228 2.86002e-005
     0.629900      1.65228 2.78701e-005
     0.631700      1.65228 2.81351e-005
     0.633700      1.65228 2.89083e-005
     0.635700      1.65228 2.85012e-005
     0.637700      1.65228 2.85282e-005
     0.639700      1.65228 2.86172e-005
     0.641700      1.65228 2.99675e-005
     0.643700      1.65228 2.92383e-005
     0.645700      1.65228 3.00275e-005
     0.647700      1.65228 2.94834e-005
     0.649700      1.65228 2.98305e-005
     0.651700      1.65228 2.85792e-005
     0.653700      1.65228 2.93074e-005
     0.655700      1.65228 2.97194e-005
     0.657700      1.65228 2.93584e-005
     0.659700      1.65228 2.95764e-005
     0.661700      1.65228 2.97965e-005
     0.663700      1.65228 2.95604e-005
     0.665700      1.65228 3.04996e-005
     0.667700      1.65228 3.05906e-005
     0.670200      1.65228 3.04426e-005
     0.673200      1.65228 3.13058e-005
     0.676200      1.65228 3.11137e-005
     0.679200      1.65228 3.21869e-005
     0.682200      1.65228 3.17248e-005
     0.685200      1.65228 3.24720e-005
     0.688200      1.65228 3.27495e-005
     0.691200      1.65228 3.30286e-005
     0.694200      1.65228 3.40638e-005
     0.697200      1.65228 3.30406e-005
     0.700200      1.65228 3.45659e-005
     0.702000      1.65228 3.41688e-005
     0.704000      1.65228 3.42659e-005
     0.706000      1.65228 3.51320e-005
     0.708000      1.65228 3.51610e-005
     0.710000      1.65228 3.63163e-005
     0.712000      1.65228 3.62072e-005
     0.714000      1.65228 3.70894e-005
     0.716000      1.65228 3.75490e-005
     0.718000      1.65228 3.77260e-005
     0.720000      1.65228 3.81891e-005
     0.722000      1.65228 3.85832e-005
     0.724000      1.65228 3.81851e-005
     0.726000      1.65228 3.87973e-005
     0.728000      1.65228 3.97765e-005
     0.730000      1.65228 3.97404e-005
     0.732000      1.65228 4.00685e-005
     0.734000      1.65228 4.16498e-005
     0.736000      1.65228 4.20589e-005
     0.738000      1.65228 4.26185e-005
     0.740000      1.65228 4.31066e-005
     0.742000      1.65228 4.35217e-005
     0.744000      1.65228 4.21419e-005
     0.746000      1.65228 4.36057e-005
     0.748000      1.65228 4.54611e-005
     0.750500      1.65228 4.63733e-005
     0.753500      1.65228 4.68644e-005
     0.756500      1.65228 4.80511e-005
     0.759500      1.65228 4.93254e-005
     0.762500      1.65228 5.00645e-005
     0.765500      1.65228 5.18299e-005
     0.768500      1.65228 5.22700e-005
     0.771500      1.65228 5.35847e-005
     0.774500      1.65228 5.45909e-005
     0.777500      1.65228 5.46419e-005
     0.781000      1.65228 5.67453e-005
     0.785000      1.65228 5.75240e-005
     0.789000      1.65228 6.00335e-005
     0.793000      1.65228 6.16638e-005
     0.797000      1.65228 6.26425e-005
     0.801500      1.65228 6.51860e-005
     0.806500      1.65228 6.55931e-005
     0.811500      1.65228 6.88313e-005
     0.816500      1.65228 7.11647e-005
     0.822000      1.65228 7.48100e-005
     0.828000      1.65228 7.54451e-005
     0.835000      1.65228 7.81501e-005
     0.843000      1.65228 8.33787e-005
     0.851000      1.65228 8.77090e-005
     0.859000      1.65228 8.88173e-005
     0.871000      1.65228 9.50640e-005
     0.883000      1.65228  0.000101307
     0.894000      1.65228  0.000106501
     0.904000      1.65228  0.000112218
     0.914000      1.65228  0.000118711
     0.924000      1.65228  0.000126674
     0.933000      1.65228  0.000137837
     0.941000      1.65228  0.000142967
     0.949000      1.65228  0.000155728
     0.957000      1.65228  0.000165585
     0.964000      1.65228  0.000171030
     0.970000      1.65228  0.000182457
     0.976000      1.65228  0.000186223
     0.982000      1.65228  0.000199405
     0.988000      1.65228  0.000209152
     0.994000      1.65228  0.000215364
      1.00000      1.65228  0.000227425
      1.00600      1.65228  0.000227270
      1.01200      1.65228  0.000237856
      1.01800      1.65228  0.000247402
      1.02350      1.65228  0.000248883
      1.02850      1.65228  0.000256083
      1.03350      1.65228  0.000263549
      1.03850      1.65228  0.000269027
      1.04350      1.65228  0.000271080
      1.04850      1.65228  0.000267223
      1.05350      1.65228  0.000272455
      1.05850      1.65228  0.000274055
      1.06350      1.65228  0.000276120
      1.06850      1.65228  0.000277418
      1.07350      1.65228  0.000270972
      1.07850      1.65228  0.000269918
      1.08350      1.65228  0.000271944
      1.08850      1.65228  0.000263615
      1.09350      1.65228  0.000258536
      1.09850      1.65228  0.000261100
      1.10350      1.65228  0.000260747
      1.10850      1.65228  0.000261000
      1.11350      1.65228  0.000250184
      1.11850      1.65228  0.000251613
      1.12350      1.65228  0.000248751
      1.12850      1.65228  0.000250473
      1.13350      1.65228  0.000251428
      1.13850      1.65228  0.000246518
      1.14350      1.65228  0.000243909
      1.14850      1.65228  0.000243590
      1.15350      1.65228  0.000246971
      1.15850      1.65228  0.000241690
      1.16350      1.65228  0.000240106
      1.16850      1.65228  0.000241292
      1.17350      1.65228  0.000240150
      1.17850      1.65228  0.000244922
      1.18350      1.65228  0.000241415
      1.18850      1.65228  0.000241651
      1.19350      1.65228  0.000244401
      1.19850      1.65228  0.000244791
      1.20350      1.65228  0.000247085
      1.20850      1.65228  0.000245239
      1.21350      1.65228  0.000242426
      1.21850      1.65228  0.000244704
      1.22350      1.65228  0.000242503
      1.22850      1.65228  0.000242530
      1.23350      1.65228  0.000242553
      1.23850      1.65228  0.000242407
      1.24350      1.65228  0.000240157
      1.24850      1.65228  0.000239829
      1.25350      1.65228  0.000242088
      1.25850      1.65228  0.000242402
      1.26350      1.65228  0.000239288
      1.26850      1.65228  0.000235193
      1.27350      1.65228  0.000235794
      1.27850      1.65228  0.000237047
      1.28350      1.65228  0.000234864
      1.28850      1.65228  0.000232998
      1.29350      1.65228  0.000230957
      1.29850      1.65228  0.000233162
      1.30350      1.65228  0.000228313
      1.30850      1.65228  0.000227057
      1.31350      1.65228  0.000224482
      1.31850      1.65228  0.000224188
      1.32350      1.65228  0.000220773
      1.32850      1.65228  0.000219966
      1.33350      1.65228  0.000219151
      1.33850      1.65228  0.000214557
      1.34350      1.65228  0.000207847
      1.34850      1.65228  0.000210580
      1.35350      1.65228  0.000207432
      1.35850      1.65228  0.000204276
      1.36350      1.65228  0.000203394
      1.36850      1.65228  0.000195992
      1.37350      1.65228  0.000206861
      1.37850      1.65228  0.000203325
      1.38350      1.65228  0.000198632
      1.38850      1.65228  0.000191005
      1.39350      1.65228  0.000190388
      1.39850      1.65228  0.000185852
      1.40350      1.65228  0.000179860
      1.40850      1.65228  0.000181313
      1.41350      1.65228  0.000180816
      1.41850      1.65228  0.000177546
      1.42350      1.65228  0.000168291
      1.42850      1.65228  0.000170985
      1.43350      1.65228  0.000168339
      1.43850      1.65228  0.000165524
      1.44350      1.65228  0.000163023
      1.44850      1.65228  0.000160675
      1.45350      1.65228  0.000156704
      1.45850      1.65228  0.000155305
      1.46350      1.65228  0.000152446
      1.46850      1.65228  0.000154262
      1.47350      1.65228  0.000148958
      1.47850      1.65228  0.000147686
      1.48350      1.65228  0.000145275
      1.48850      1.65228  0.000146250
      1.49350      1.65228  0.000143173
      1.49850      1.65228  0.000141706
      1.50350      1.65228  0.000141204
      1.50850      1.65228  0.000141023
      1.51350      1.65228  0.000138719
      1.51850      1.65228  0.000139667
      1.52350      1.65228  0.000134738
      1.52850      1.65228  0.000134201
      1.53400      1.65228  0.000131742
      1.54000      1.65228  0.000133569
      1.54600      1.65228  0.000131459
      1.55200      1.65228  0.000130489
      1.55800      1.65228  0.000128027
      1.56400      1.65228  0.000126047
      1.57050      1.65228  0.000126406
      1.57750      1.65228  0.000127468
      1.58450      1.65228  0.000126200
      1.59150      1.65228  0.000127259
      1.59850      1.65228  0.000126476
      1.60550      1.65228  0.000127367
      1.61250      1.65228  0.000127414
      1.61950      1.65228  0.000124070
      1.62650      1.65228  0.000128009
      1.63350      1.65228  0.000127875
      1.64050      1.65228  0.000126706
      1.64750      1.65228  0.000127247
      1.65450      1.65228  0.000126578
      1.66150      1.65228  0.000129023
      1.66850      1.65228  0.000132716
      1.67600      1.65228  0.000133841
      1.68400      1.65228  0.000133948
      1.69200      1.65228  0.000136898
      1.70000      1.65228  0.000134864
      1.70800      1.65228  0.000138552
      1.71600      1.65228  0.000136493
      1.72400      1.65228  0.000141850
      1.73200      1.65228  0.000144705
      1.74000      1.65228  0.000143167
      1.74800      1.65228  0.000147708
      1.75600      1.65228  0.000144854
      1.76400      1.65228  0.000143839
      1.77200      1.65228  0.000146548
      1.78000      1.65228  0.000153816
      1.78800      1.65228  0.000145795
      1.79600      1.65228  0.000155772
      1.80500      1.65228  0.000157129
      1.81500      1.65228  0.000159742
      1.82500      1.65228  0.000154796
      1.83500      1.65228  0.000165822
      1.84500      1.65228  0.000168904
      1.85500      1.65228  0.000171217
      1.86500      1.65228  0.000169933
      1.87500      1.65228  0.000170443
      1.88500      1.65228  0.000174797
      1.89500      1.65228  0.000180226
      1.90500      1.65228  0.000186344
      1.91500      1.65228  0.000189824
      1.92500      1.65228  0.000187044
      1.93500      1.65228  0.000194766
      1.94500      1.65228  0.000192162
      1.95500      1.65228  0.000193790
      1.96500      1.65228  0.000200153
      1.97500      1.65228  0.000200738
      1.98500      1.65228  0.000195898
      1.99500      1.65228  0.000208909
      2.00500      1.65228  0.000205106
      2.01500      1.65228  0.000205466
      2.02500      1.65228  0.000201392
      2.03500      1.65228  0.000206167
      2.04500      1.65228  0.000207852
      2.05500      1.65228  0.000212026
      2.06500      1.65228  0.000212831
      2.07500      1.65228  0.000209084
      2.08500      1.65228  0.000207586
      2.09500      1.65228  0.000216383
      2.10500      1.65228  0.000210497
      2.11500      1.65228  0.000218914
      2.12500      1.65228  0.000215984
      2.13500      1.65228  0.000223099
      2.14500      1.65228  0.000217546
      2.15500      1.65228  0.000224714
      2.16500      1.65228  0.000234372
      2.17500      1.65228  0.000231119
      2.18500      1.65228  0.000236295
      2.19500      1.65228  0.000246421
      2.20500      1.65228  0.000242378
      2.21500      1.65228  0.000253878
      2.22500      1.65228  0.000253277
      2.23500      1.65228  0.000262462
      2.24500      1.65228  0.000272029
      2.25500      1.65228  0.000277864
      2.26500      1.65228  0.000269826
      2.27500      1.65228  0.000277475
      2.28500      1.65228  0.000264728
      2.29500      1.65228  0.000297018
      2.30500      1.65228  0.000303379
      2.31500      1.65228  0.000288696
      2.32500      1.65228  0.000298755
      2.33500      1.65228  0.000285858
      2.34500      1.65228  0.000284946
      2.35500      1.65228  0.000290187
      2.36500      1.65228  0.000288184
      2.37500      1.65228  0.000298627
      2.38600      1.65228  0.000298097
      2.40000      1.65228  0.000302321
