data provided by Paul Lucey in 2006
derived using techniques of Lucey 1998
Forsterite, Fo= 89.0000
minimum grain size (microns)= 150.000
maximum grain size=(microns) 250.000
column 1= wavelength, micrometers
column 2= real index
column 3= imaginary index
 
     0.221100      1.65612 4.22580e-005
     0.229100      1.65612 5.41988e-005
     0.236100      1.65612 5.63343e-005
     0.242100      1.65612 5.64493e-005
     0.248100      1.65612 5.63733e-005
     0.253600      1.65612 5.68054e-005
     0.258600      1.65612 5.86352e-005
     0.263600      1.65612 6.24130e-005
     0.268600      1.65612 6.48650e-005
     0.273100      1.65612 6.78941e-005
     0.277100      1.65612 6.87382e-005
     0.281100      1.65612 6.94584e-005
     0.285100      1.65612 7.49210e-005
     0.289100      1.65612 7.19659e-005
     0.293100      1.65612 7.03566e-005
     0.297100      1.65612 7.25265e-005
     0.301100      1.65612 7.85652e-005
     0.305100      1.65612 8.23620e-005
     0.309100      1.65612 7.56841e-005
     0.313100      1.65612 7.71644e-005
     0.317100      1.65612 7.82862e-005
     0.321100      1.65612 7.82161e-005
     0.325100      1.65612 7.62883e-005
     0.329100      1.65612 7.51900e-005
     0.333100      1.65612 7.36197e-005
     0.337100      1.65612 6.87413e-005
     0.341100      1.65612 6.48020e-005
     0.345100      1.65612 6.28686e-005
     0.349100      1.65612 5.73325e-005
     0.353100      1.65612 5.32306e-005
     0.357100      1.65612 4.99625e-005
     0.360600      1.65612 4.69254e-005
     0.363600      1.65612 4.51590e-005
     0.366600      1.65612 4.37237e-005
     0.369600      1.65612 4.25235e-005
     0.372600      1.65612 4.11267e-005
     0.375600      1.65612 4.01715e-005
     0.378600      1.65612 3.89863e-005
     0.381100      1.65612 3.79861e-005
     0.383100      1.65612 3.82301e-005
     0.385100      1.65612 3.76660e-005
     0.387100      1.65612 3.72975e-005
     0.389100      1.65612 3.66093e-005
     0.391100      1.65612 3.63753e-005
     0.393100      1.65612 3.57111e-005
     0.395100      1.65612 3.55071e-005
     0.397100      1.65612 3.50060e-005
     0.399100      1.65612 3.48160e-005
     0.401100      1.65612 3.56721e-005
     0.403100      1.65612 3.69134e-005
     0.405100      1.65612 3.46739e-005
     0.407100      1.65612 3.73985e-005
     0.409100      1.65612 3.74175e-005
     0.411100      1.65612 3.16548e-005
     0.412800      1.65612 3.11297e-005
     0.415800      1.65612 3.10817e-005
     0.418800      1.65612 3.07967e-005
     0.421800      1.65612 3.09777e-005
     0.424800      1.65612 3.13698e-005
     0.427800      1.65612 3.11677e-005
     0.430800      1.65612 3.12277e-005
     0.433800      1.65612 3.17388e-005
     0.436800      1.65612 3.19309e-005
     0.439800      1.65612 3.22459e-005
     0.442800      1.65612 3.29056e-005
     0.445800      1.65612 3.37447e-005
     0.448800      1.65612 3.37177e-005
     0.451300      1.65612 3.37347e-005
     0.453300      1.65612 3.43269e-005
     0.455300      1.65612 3.40488e-005
     0.457300      1.65612 3.37838e-005
     0.459300      1.65612 3.38178e-005
     0.461300      1.65612 3.38648e-005
     0.463300      1.65612 3.30736e-005
     0.465300      1.65612 3.28786e-005
     0.467300      1.65612 3.29636e-005
     0.469300      1.65612 3.26685e-005
     0.471300      1.65612 3.28076e-005
     0.473300      1.65612 3.21899e-005
     0.475300      1.65612 3.16468e-005
     0.477300      1.65612 3.13528e-005
     0.479300      1.65612 3.05026e-005
     0.481300      1.65612 2.99175e-005
     0.483300      1.65612 2.93884e-005
     0.485300      1.65612 2.96834e-005
     0.487300      1.65612 2.93664e-005
     0.489300      1.65612 2.90493e-005
     0.491300      1.65612 2.87452e-005
     0.493300      1.65612 2.83252e-005
     0.495300      1.65612 2.80741e-005
     0.497300      1.65612 2.73335e-005
     0.499300      1.65612 2.61982e-005
     0.501300      1.65612 2.51950e-005
     0.503300      1.65612 2.44869e-005
     0.505300      1.65612 2.37738e-005
     0.507300      1.65612 2.26915e-005
     0.509300      1.65612 2.22540e-005
     0.511300      1.65612 2.16908e-005
     0.513300      1.65612 2.13608e-005
     0.515300      1.65612 2.11337e-005
     0.517300      1.65612 2.06676e-005
     0.519300      1.65612 2.01135e-005
     0.521300      1.65612 2.00895e-005
     0.523300      1.65612 1.96604e-005
     0.525300      1.65612 1.91773e-005
     0.527300      1.65612 1.88963e-005
     0.529300      1.65612 1.87793e-005
     0.531300      1.65612 1.82111e-005
     0.533300      1.65612 1.78651e-005
     0.535300      1.65612 1.76590e-005
     0.537300      1.65612 1.70974e-005
     0.539300      1.65612 1.71614e-005
     0.541300      1.65612 1.67083e-005
     0.543300      1.65612 1.64273e-005
     0.545300      1.65612 1.63483e-005
     0.547300      1.65612 1.60132e-005
     0.549300      1.65612 1.59332e-005
     0.551300      1.65612 1.57572e-005
     0.553300      1.65612 1.57401e-005
     0.555300      1.65612 1.56471e-005
     0.557300      1.65612 1.55971e-005
     0.559300      1.65612 1.57061e-005
     0.561300      1.65612 1.55481e-005
     0.563300      1.65612 1.56891e-005
     0.565300      1.65612 1.58862e-005
     0.567300      1.65612 1.59742e-005
     0.569300      1.65612 1.62062e-005
     0.571300      1.65612 1.63513e-005
     0.573300      1.65612 1.64193e-005
     0.575300      1.65612 1.64763e-005
     0.577300      1.65612 1.68464e-005
     0.579300      1.65612 1.69944e-005
     0.581300      1.65612 1.74045e-005
     0.583300      1.65612 1.75450e-005
     0.585300      1.65612 1.76160e-005
     0.587300      1.65612 1.80231e-005
     0.589300      1.65612 1.85292e-005
     0.591300      1.65612 1.86032e-005
     0.593300      1.65612 1.88203e-005
     0.595300      1.65612 1.92063e-005
     0.597300      1.65612 1.94994e-005
     0.599300      1.65612 1.99295e-005
     0.601100      1.65612 2.02095e-005
     0.602700      1.65612 2.05476e-005
     0.604300      1.65612 2.10507e-005
     0.605900      1.65612 2.12317e-005
     0.607500      1.65612 2.15288e-005
     0.609100      1.65612 2.18269e-005
     0.610700      1.65612 2.21539e-005
     0.612300      1.65612 2.25485e-005
     0.613900      1.65612 2.28156e-005
     0.615500      1.65612 2.34417e-005
     0.617100      1.65612 2.42228e-005
     0.618700      1.65612 2.44479e-005
     0.620300      1.65612 2.50150e-005
     0.621900      1.65612 2.55751e-005
     0.623500      1.65612 2.59322e-005
     0.625100      1.65612 2.62092e-005
     0.626700      1.65612 2.71404e-005
     0.628300      1.65612 2.72524e-005
     0.629900      1.65612 2.76680e-005
     0.631700      1.65612 2.81981e-005
     0.633700      1.65612 2.89643e-005
     0.635700      1.65612 2.92944e-005
     0.637700      1.65612 2.94914e-005
     0.639700      1.65612 2.97645e-005
     0.641700      1.65612 2.97975e-005
     0.643700      1.65612 3.02245e-005
     0.645700      1.65612 3.07026e-005
     0.647700      1.65612 3.09677e-005
     0.649700      1.65612 3.12818e-005
     0.651700      1.65612 3.11907e-005
     0.653700      1.65612 3.14738e-005
     0.655700      1.65612 3.16328e-005
     0.657700      1.65612 3.19829e-005
     0.659700      1.65612 3.22400e-005
     0.661700      1.65612 3.21139e-005
     0.663700      1.65612 3.24190e-005
     0.665700      1.65612 3.23400e-005
     0.667700      1.65612 3.28406e-005
     0.670200      1.65612 3.28986e-005
     0.673200      1.65612 3.29976e-005
     0.676200      1.65612 3.27525e-005
     0.679200      1.65612 3.28326e-005
     0.682200      1.65612 3.31416e-005
     0.685200      1.65612 3.42529e-005
     0.688200      1.65612 3.52340e-005
     0.691200      1.65612 3.59552e-005
     0.694200      1.65612 3.71434e-005
     0.697200      1.65612 3.71804e-005
     0.700200      1.65612 3.78751e-005
     0.702000      1.65612 3.77751e-005
     0.704000      1.65612 3.84052e-005
     0.706000      1.65612 3.86412e-005
     0.708000      1.65612 3.92624e-005
     0.710000      1.65612 3.98905e-005
     0.712000      1.65612 4.04506e-005
     0.714000      1.65612 4.08277e-005
     0.716000      1.65612 4.07526e-005
     0.718000      1.65612 4.13788e-005
     0.720000      1.65612 4.17428e-005
     0.722000      1.65612 4.28056e-005
     0.724000      1.65612 4.29826e-005
     0.726000      1.65612 4.33367e-005
     0.728000      1.65612 4.44279e-005
     0.730000      1.65612 4.48910e-005
     0.732000      1.65612 4.54591e-005
     0.734000      1.65612 4.62172e-005
     0.736000      1.65612 4.69844e-005
     0.738000      1.65612 4.80541e-005
     0.740000      1.65612 4.87362e-005
     0.742000      1.65612 4.86762e-005
     0.744000      1.65612 5.05356e-005
     0.746000      1.65612 5.14638e-005
     0.748000      1.65612 5.29226e-005
     0.750500      1.65612 5.44469e-005
     0.753500      1.65612 5.62302e-005
     0.756500      1.65612 5.76230e-005
     0.759500      1.65612 5.98805e-005
     0.762500      1.65612 6.13678e-005
     0.765500      1.65612 6.38418e-005
     0.768500      1.65612 6.61802e-005
     0.771500      1.65612 6.78191e-005
     0.774500      1.65612 7.10087e-005
     0.777500      1.65612 7.30936e-005
     0.781000      1.65612 7.67804e-005
     0.785000      1.65612 8.08357e-005
     0.789000      1.65612 8.28516e-005
     0.793000      1.65612 8.77330e-005
     0.797000      1.65612 9.04976e-005
     0.801500      1.65612 9.51140e-005
     0.806500      1.65612 9.99355e-005
     0.811500      1.65612  0.000105235
     0.816500      1.65612  0.000108863
     0.822000      1.65612  0.000115275
     0.828000      1.65612  0.000120690
     0.835000      1.65612  0.000126907
     0.843000      1.65612  0.000135293
     0.851000      1.65612  0.000137271
     0.859000      1.65612  0.000145283
     0.871000      1.65612  0.000158736
     0.883000      1.65612  0.000172685
     0.894000      1.65612  0.000187376
     0.904000      1.65612  0.000200214
     0.914000      1.65612  0.000216318
     0.924000      1.65612  0.000238967
     0.933000      1.65612  0.000262997
     0.941000      1.65612  0.000281045
     0.949000      1.65612  0.000309258
     0.957000      1.65612  0.000337602
     0.964000      1.65612  0.000358584
     0.970000      1.65612  0.000387064
     0.976000      1.65612  0.000413926
     0.982000      1.65612  0.000439597
     0.988000      1.65612  0.000465918
     0.994000      1.65612  0.000495046
      1.00000      1.65612  0.000532536
      1.00600      1.65612  0.000555583
      1.01200      1.65612  0.000595971
      1.01800      1.65612  0.000612956
      1.02350      1.65612  0.000639772
      1.02850      1.65612  0.000662555
      1.03350      1.65612  0.000693453
      1.03850      1.65612  0.000704858
      1.04350      1.65612  0.000715859
      1.04850      1.65612  0.000733690
      1.05350      1.65612  0.000757055
      1.05850      1.65612  0.000783648
      1.06350      1.65612  0.000778904
      1.06850      1.65612  0.000787630
      1.07350      1.65612  0.000790463
      1.07850      1.65612  0.000777453
      1.08350      1.65612  0.000772189
      1.08850      1.65612  0.000773364
      1.09350      1.65612  0.000754593
      1.09850      1.65612  0.000747023
      1.10350      1.65612  0.000757762
      1.10850      1.65612  0.000721919
      1.11350      1.65612  0.000722533
      1.11850      1.65612  0.000707161
      1.12350      1.65612  0.000703506
      1.12850      1.65612  0.000678361
      1.13350      1.65612  0.000683639
      1.13850      1.65612  0.000662940
      1.14350      1.65612  0.000662138
      1.14850      1.65612  0.000649531
      1.15350      1.65612  0.000641902
      1.15850      1.65612  0.000631209
      1.16350      1.65612  0.000631108
      1.16850      1.65612  0.000630542
      1.17350      1.65612  0.000619512
      1.17850      1.65612  0.000614602
      1.18350      1.65612  0.000615452
      1.18850      1.65612  0.000611954
      1.19350      1.65612  0.000610654
      1.19850      1.65612  0.000612354
      1.20350      1.65612  0.000608521
      1.20850      1.65612  0.000601054
      1.21350      1.65612  0.000606435
      1.21850      1.65612  0.000607685
      1.22350      1.65612  0.000603166
      1.22850      1.65612  0.000596350
      1.23350      1.65612  0.000593238
      1.23850      1.65612  0.000590953
      1.24350      1.65612  0.000597257
      1.24850      1.65612  0.000588000
      1.25350      1.65612  0.000588827
      1.25850      1.65612  0.000580272
      1.26350      1.65612  0.000577060
      1.26850      1.65612  0.000570329
      1.27350      1.65612  0.000568324
      1.27850      1.65612  0.000554378
      1.28350      1.65612  0.000554868
      1.28850      1.65612  0.000546134
      1.29350      1.65612  0.000537693
      1.29850      1.65612  0.000525887
      1.30350      1.65612  0.000523405
      1.30850      1.65612  0.000511092
      1.31350      1.65612  0.000509343
      1.31850      1.65612  0.000499861
      1.32350      1.65612  0.000491249
      1.32850      1.65612  0.000481133
      1.33350      1.65612  0.000467738
      1.33850      1.65612  0.000459434
      1.34350      1.65612  0.000450491
      1.34850      1.65612  0.000442518
      1.35350      1.65612  0.000427614
      1.35850      1.65612  0.000417514
      1.36350      1.65612  0.000403595
      1.36850      1.65612  0.000397920
      1.37350      1.65612  0.000385923
      1.37850      1.65612  0.000379271
      1.38350      1.65612  0.000369302
      1.38850      1.65612  0.000356567
      1.39350      1.65612  0.000346128
      1.39850      1.65612  0.000338021
      1.40350      1.65612  0.000324343
      1.40850      1.65612  0.000314440
      1.41350      1.65612  0.000305077
      1.41850      1.65612  0.000292589
      1.42350      1.65612  0.000281217
      1.42850      1.65612  0.000272805
      1.43350      1.65612  0.000265553
      1.43850      1.65612  0.000255485
      1.44350      1.65612  0.000245100
      1.44850      1.65612  0.000236404
      1.45350      1.65612  0.000228949
      1.45850      1.65612  0.000222187
      1.46350      1.65612  0.000213320
      1.46850      1.65612  0.000204277
      1.47350      1.65612  0.000197523
      1.47850      1.65612  0.000189600
      1.48350      1.65612  0.000184749
      1.48850      1.65612  0.000175212
      1.49350      1.65612  0.000166585
      1.49850      1.65612  0.000161962
      1.50350      1.65612  0.000156957
      1.50850      1.65612  0.000151427
      1.51350      1.65612  0.000144162
      1.51850      1.65612  0.000138943
      1.52350      1.65612  0.000132796
      1.52850      1.65612  0.000127787
      1.53400      1.65612  0.000121093
      1.54000      1.65612  0.000116815
      1.54600      1.65612  0.000111638
      1.55200      1.65612  0.000106240
      1.55800      1.65612  0.000101984
      1.56400      1.65612 9.72164e-005
      1.57050      1.65612 9.24780e-005
      1.57750      1.65612 8.82181e-005
      1.58450      1.65612 8.33777e-005
      1.59150      1.65612 7.87042e-005
      1.59850      1.65612 7.60072e-005
      1.60550      1.65612 7.31206e-005
      1.61250      1.65612 7.03476e-005
      1.61950      1.65612 6.72134e-005
      1.62650      1.65612 6.46979e-005
      1.63350      1.65612 6.22119e-005
      1.64050      1.65612 5.99265e-005
      1.64750      1.65612 5.79721e-005
      1.65450      1.65612 5.53891e-005
      1.66150      1.65612 5.48800e-005
      1.66850      1.65612 5.30606e-005
      1.67600      1.65612 5.18979e-005
      1.68400      1.65612 5.05526e-005
      1.69200      1.65612 4.83932e-005
      1.70000      1.65612 4.80661e-005
      1.70800      1.65612 4.72144e-005
      1.71600      1.65612 4.64263e-005
      1.72400      1.65612 4.53111e-005
      1.73200      1.65612 4.52300e-005
      1.74000      1.65612 4.43359e-005
      1.74800      1.65612 4.40218e-005
      1.75600      1.65612 4.37367e-005
      1.76400      1.65612 4.37738e-005
      1.77200      1.65612 4.42008e-005
      1.78000      1.65612 4.40068e-005
      1.78800      1.65612 4.30586e-005
      1.79600      1.65612 4.35137e-005
      1.80500      1.65612 4.37317e-005
      1.81500      1.65612 4.41398e-005
      1.82500      1.65612 4.35167e-005
      1.83500      1.65612 4.45929e-005
      1.84500      1.65612 4.46669e-005
      1.85500      1.65612 4.58952e-005
      1.86500      1.65612 4.49130e-005
      1.87500      1.65612 4.53591e-005
      1.88500      1.65612 4.67764e-005
      1.89500      1.65612 4.68504e-005
      1.90500      1.65612 4.77290e-005
      1.91500      1.65612 4.81211e-005
      1.92500      1.65612 4.81951e-005
      1.93500      1.65612 4.87673e-005
      1.94500      1.65612 4.90553e-005
      1.95500      1.65612 5.02505e-005
      1.96500      1.65612 4.91963e-005
      1.97500      1.65612 5.02876e-005
      1.98500      1.65612 4.93314e-005
      1.99500      1.65612 5.11307e-005
      2.00500      1.65612 5.08657e-005
      2.01500      1.65612 5.12317e-005
      2.02500      1.65612 4.99155e-005
      2.03500      1.65612 5.21179e-005
      2.04500      1.65612 5.18049e-005
      2.05500      1.65612 5.15638e-005
      2.06500      1.65612 5.28476e-005
      2.07500      1.65612 5.18739e-005
      2.08500      1.65612 5.22009e-005
      2.09500      1.65612 5.29156e-005
      2.10500      1.65612 5.25465e-005
      2.11500      1.65612 5.29126e-005
      2.12500      1.65612 5.22630e-005
      2.13500      1.65612 5.33347e-005
      2.14500      1.65612 5.40198e-005
      2.15500      1.65612 5.58732e-005
      2.16500      1.65612 5.52060e-005
      2.17500      1.65612 5.74095e-005
      2.18500      1.65612 5.62032e-005
      2.19500      1.65612 5.87222e-005
      2.20500      1.65612 5.94054e-005
      2.21500      1.65612 5.82161e-005
      2.22500      1.65612 5.93154e-005
      2.23500      1.65612 6.05516e-005
      2.24500      1.65612 6.07807e-005
      2.25500      1.65612 6.10937e-005
      2.26500      1.65612 6.03386e-005
      2.27500      1.65612 6.24985e-005
      2.28500      1.65612 6.31216e-005
      2.29500      1.65612 6.21779e-005
      2.30500      1.65612 6.37177e-005
      2.31500      1.65612 6.28066e-005
      2.32500      1.65612 6.18929e-005
      2.33500      1.65612 6.19399e-005
      2.34500      1.65612 6.26465e-005
      2.35500      1.65612 6.07957e-005
      2.36500      1.65612 6.16718e-005
      2.37500      1.65612 6.36717e-005
      2.38600      1.65612 6.42819e-005
      2.40000      1.65612 6.51580e-005
