data provided by Paul Lucey in 2006
derived using techniques of Lucey 1998
Forsterite, Fo= 89.0000
minimum grain size (microns)= 60.0000
maximum grain size=(microns) 104.000
column 1= wavelength, micrometers
column 2= real index
column 3= imaginary index
 
     0.221100      1.65612 7.62202e-006
     0.229100      1.65612 8.00160e-009
     0.236100      1.65612 1.70274e-005
     0.242100      1.65612 7.02746e-005
     0.248100      1.65612  0.000145066
     0.253600      1.65612  0.000176772
     0.258600      1.65612  0.000173920
     0.263600      1.65612  0.000164589
     0.268600      1.65612  0.000163359
     0.273100      1.65612  0.000172413
     0.277100      1.65612  0.000169339
     0.281100      1.65612  0.000172009
     0.285100      1.65612  0.000171817
     0.289100      1.65612  0.000169621
     0.293100      1.65612  0.000170207
     0.297100      1.65612  0.000170259
     0.301100      1.65612  0.000170508
     0.305100      1.65612  0.000162830
     0.309100      1.65612  0.000162515
     0.313100      1.65612  0.000157070
     0.317100      1.65612  0.000149020
     0.321100      1.65612  0.000141440
     0.325100      1.65612  0.000130745
     0.329100      1.65612  0.000118653
     0.333100      1.65612  0.000109259
     0.337100      1.65612  0.000100453
     0.341100      1.65612 9.05686e-005
     0.345100      1.65612 8.35197e-005
     0.349100      1.65612 7.61092e-005
     0.353100      1.65612 7.31986e-005
     0.357100      1.65612 6.95994e-005
     0.360600      1.65612 6.52681e-005
     0.363600      1.65612 6.23630e-005
     0.366600      1.65612 6.17829e-005
     0.369600      1.65612 5.89493e-005
     0.372600      1.65612 5.75730e-005
     0.375600      1.65612 5.62533e-005
     0.378600      1.65612 5.43189e-005
     0.381100      1.65612 5.28756e-005
     0.383100      1.65612 5.30546e-005
     0.385100      1.65612 5.26685e-005
     0.387100      1.65612 5.19379e-005
     0.389100      1.65612 5.07487e-005
     0.391100      1.65612 5.07677e-005
     0.393100      1.65612 5.03266e-005
     0.395100      1.65612 4.99545e-005
     0.397100      1.65612 4.86022e-005
     0.399100      1.65612 4.91583e-005
     0.401100      1.65612 4.93564e-005
     0.403100      1.65612 4.83532e-005
     0.405100      1.65612 4.68124e-005
     0.407100      1.65612 4.62433e-005
     0.409100      1.65612 4.58832e-005
     0.411100      1.65612 4.48700e-005
     0.412800      1.65612 4.48230e-005
     0.415800      1.65612 4.53131e-005
     0.418800      1.65612 4.46999e-005
     0.421800      1.65612 4.46439e-005
     0.424800      1.65612 4.47730e-005
     0.427800      1.65612 4.50650e-005
     0.430800      1.65612 4.51660e-005
     0.433800      1.65612 4.54571e-005
     0.436800      1.65612 4.56741e-005
     0.439800      1.65612 4.55751e-005
     0.442800      1.65612 4.66203e-005
     0.445800      1.65612 4.76060e-005
     0.448800      1.65612 4.78011e-005
     0.451300      1.65612 4.77410e-005
     0.453300      1.65612 4.82301e-005
     0.455300      1.65612 4.83162e-005
     0.457300      1.65612 4.77170e-005
     0.459300      1.65612 4.75960e-005
     0.461300      1.65612 4.79561e-005
     0.463300      1.65612 4.71474e-005
     0.465300      1.65612 4.65913e-005
     0.467300      1.65612 4.64883e-005
     0.469300      1.65612 4.70934e-005
     0.471300      1.65612 4.64543e-005
     0.473300      1.65612 4.56881e-005
     0.475300      1.65612 4.47470e-005
     0.477300      1.65612 4.44579e-005
     0.479300      1.65612 4.36927e-005
     0.481300      1.65612 4.32266e-005
     0.483300      1.65612 4.30566e-005
     0.485300      1.65612 4.29606e-005
     0.487300      1.65612 4.26885e-005
     0.489300      1.65612 4.25135e-005
     0.491300      1.65612 4.21629e-005
     0.493300      1.65612 4.19349e-005
     0.495300      1.65612 4.13808e-005
     0.497300      1.65612 4.01595e-005
     0.499300      1.65612 3.87252e-005
     0.501300      1.65612 3.74715e-005
     0.503300      1.65612 3.71374e-005
     0.505300      1.65612 3.64173e-005
     0.507300      1.65612 3.51720e-005
     0.509300      1.65612 3.48350e-005
     0.511300      1.65612 3.47570e-005
     0.513300      1.65612 3.38928e-005
     0.515300      1.65612 3.34327e-005
     0.517300      1.65612 3.30416e-005
     0.519300      1.65612 3.24130e-005
     0.521300      1.65612 3.22780e-005
     0.523300      1.65612 3.20009e-005
     0.525300      1.65612 3.16508e-005
     0.527300      1.65612 3.12988e-005
     0.529300      1.65612 3.09697e-005
     0.531300      1.65612 3.02866e-005
     0.533300      1.65612 3.00715e-005
     0.535300      1.65612 2.97384e-005
     0.537300      1.65612 2.93094e-005
     0.539300      1.65612 2.95124e-005
     0.541300      1.65612 2.90563e-005
     0.543300      1.65612 2.86462e-005
     0.545300      1.65612 2.83752e-005
     0.547300      1.65612 2.83382e-005
     0.549300      1.65612 2.81591e-005
     0.551300      1.65612 2.79551e-005
     0.553300      1.65612 2.78911e-005
     0.555300      1.65612 2.81811e-005
     0.557300      1.65612 2.78071e-005
     0.559300      1.65612 2.80741e-005
     0.561300      1.65612 2.80551e-005
     0.563300      1.65612 2.85632e-005
     0.565300      1.65612 2.83512e-005
     0.567300      1.65612 2.88873e-005
     0.569300      1.65612 2.89893e-005
     0.571300      1.65612 2.90913e-005
     0.573300      1.65612 2.89973e-005
     0.575300      1.65612 2.93684e-005
     0.577300      1.65612 2.98915e-005
     0.579300      1.65612 2.99955e-005
     0.581300      1.65612 3.06246e-005
     0.583300      1.65612 3.09567e-005
     0.585300      1.65612 3.08607e-005
     0.587300      1.65612 3.17298e-005
     0.589300      1.65612 3.20429e-005
     0.591300      1.65612 3.23060e-005
     0.593300      1.65612 3.23640e-005
     0.595300      1.65612 3.31496e-005
     0.597300      1.65612 3.36547e-005
     0.599300      1.65612 3.39518e-005
     0.601100      1.65612 3.41068e-005
     0.602700      1.65612 3.49170e-005
     0.604300      1.65612 3.55461e-005
     0.605900      1.65612 3.57752e-005
     0.607500      1.65612 3.60052e-005
     0.609100      1.65612 3.62913e-005
     0.610700      1.65612 3.64683e-005
     0.612300      1.65612 3.72505e-005
     0.613900      1.65612 3.72374e-005
     0.615500      1.65612 3.83892e-005
     0.617100      1.65612 3.92473e-005
     0.618700      1.65612 3.95464e-005
     0.620300      1.65612 3.99885e-005
     0.621900      1.65612 4.03206e-005
     0.623500      1.65612 4.11117e-005
     0.625100      1.65612 4.13908e-005
     0.626700      1.65612 4.23100e-005
     0.628300      1.65612 4.28276e-005
     0.629900      1.65612 4.34367e-005
     0.631700      1.65612 4.37087e-005
     0.633700      1.65612 4.49500e-005
     0.635700      1.65612 4.51220e-005
     0.637700      1.65612 4.56261e-005
     0.639700      1.65612 4.57091e-005
     0.641700      1.65612 4.64313e-005
     0.643700      1.65612 4.65143e-005
     0.645700      1.65612 4.71824e-005
     0.647700      1.65612 4.68344e-005
     0.649700      1.65612 4.69174e-005
     0.651700      1.65612 4.79321e-005
     0.653700      1.65612 4.77981e-005
     0.655700      1.65612 4.80691e-005
     0.657700      1.65612 4.81841e-005
     0.659700      1.65612 4.82051e-005
     0.661700      1.65612 4.84462e-005
     0.663700      1.65612 4.92283e-005
     0.665700      1.65612 4.93124e-005
     0.667700      1.65612 4.98135e-005
     0.670200      1.65612 5.00005e-005
     0.673200      1.65612 5.02235e-005
     0.676200      1.65612 4.99285e-005
     0.679200      1.65612 5.00845e-005
     0.682200      1.65612 5.01095e-005
     0.685200      1.65612 5.17469e-005
     0.688200      1.65612 5.28736e-005
     0.691200      1.65612 5.37447e-005
     0.694200      1.65612 5.52030e-005
     0.697200      1.65612 5.51670e-005
     0.700200      1.65612 5.66833e-005
     0.702000      1.65612 5.63433e-005
     0.704000      1.65612 5.72004e-005
     0.706000      1.65612 5.69784e-005
     0.708000      1.65612 5.78781e-005
     0.710000      1.65612 5.87493e-005
     0.712000      1.65612 5.94854e-005
     0.714000      1.65612 6.07677e-005
     0.716000      1.65612 6.01795e-005
     0.718000      1.65612 6.08907e-005
     0.720000      1.65612 6.14248e-005
     0.722000      1.65612 6.24380e-005
     0.724000      1.65612 6.27946e-005
     0.726000      1.65612 6.37848e-005
     0.728000      1.65612 6.43329e-005
     0.730000      1.65612 6.55251e-005
     0.732000      1.65612 6.58562e-005
     0.734000      1.65612 6.74855e-005
     0.736000      1.65612 6.84392e-005
     0.738000      1.65612 6.84702e-005
     0.740000      1.65612 7.01755e-005
     0.742000      1.65612 7.19029e-005
     0.744000      1.65612 7.30536e-005
     0.746000      1.65612 7.39318e-005
     0.748000      1.65612 7.48180e-005
     0.750500      1.65612 7.69894e-005
     0.753500      1.65612 7.96254e-005
     0.756500      1.65612 8.14198e-005
     0.759500      1.65612 8.43169e-005
     0.762500      1.65612 8.65253e-005
     0.765500      1.65612 9.03356e-005
     0.768500      1.65612 9.15488e-005
     0.771500      1.65612 9.36897e-005
     0.774500      1.65612 9.75010e-005
     0.777500      1.65612 9.94434e-005
     0.781000      1.65612  0.000104248
     0.785000      1.65612  0.000109267
     0.789000      1.65612  0.000111556
     0.793000      1.65612  0.000116386
     0.797000      1.65612  0.000121736
     0.801500      1.65612  0.000126051
     0.806500      1.65612  0.000131470
     0.811500      1.65612  0.000138354
     0.816500      1.65612  0.000143361
     0.822000      1.65612  0.000151233
     0.828000      1.65612  0.000155870
     0.835000      1.65612  0.000163281
     0.843000      1.65612  0.000180205
     0.851000      1.65612  0.000195952
     0.859000      1.65612  0.000197637
     0.871000      1.65612  0.000209388
     0.883000      1.65612  0.000225315
     0.894000      1.65612  0.000239973
     0.904000      1.65612  0.000249533
     0.914000      1.65612  0.000278310
     0.924000      1.65612  0.000300521
     0.933000      1.65612  0.000327150
     0.941000      1.65612  0.000347512
     0.949000      1.65612  0.000370931
     0.957000      1.65612  0.000407115
     0.964000      1.65612  0.000436803
     0.970000      1.65612  0.000460279
     0.976000      1.65612  0.000498332
     0.982000      1.65612  0.000521043
     0.988000      1.65612  0.000547315
     0.994000      1.65612  0.000566726
      1.00000      1.65612  0.000603966
      1.00600      1.65612  0.000637927
      1.01200      1.65612  0.000647458
      1.01800      1.65612  0.000676008
      1.02350      1.65612  0.000709159
      1.02850      1.65612  0.000727313
      1.03350      1.65612  0.000751724
      1.03850      1.65612  0.000752512
      1.04350      1.65612  0.000776151
      1.04850      1.65612  0.000795397
      1.05350      1.65612  0.000814879
      1.05850      1.65612  0.000825592
      1.06350      1.65612  0.000802117
      1.06850      1.65612  0.000780499
      1.07350      1.65612  0.000803069
      1.07850      1.65612  0.000773811
      1.08350      1.65612  0.000795219
      1.08850      1.65612  0.000785035
      1.09350      1.65612  0.000780538
      1.09850      1.65612  0.000783373
      1.10350      1.65612  0.000753421
      1.10850      1.65612  0.000758919
      1.11350      1.65612  0.000744806
      1.11850      1.65612  0.000744766
      1.12350      1.65612  0.000725233
      1.12850      1.65612  0.000711500
      1.13350      1.65612  0.000708994
      1.13850      1.65612  0.000681673
      1.14350      1.65612  0.000688239
      1.14850      1.65612  0.000680268
      1.15350      1.65612  0.000681757
      1.15850      1.65612  0.000682062
      1.16350      1.65612  0.000674501
      1.16850      1.65612  0.000655005
      1.17350      1.65612  0.000654479
      1.17850      1.65612  0.000653397
      1.18350      1.65612  0.000668774
      1.18850      1.65612  0.000658663
      1.19350      1.65612  0.000655614
      1.19850      1.65612  0.000656152
      1.20350      1.65612  0.000638303
      1.20850      1.65612  0.000638034
      1.21350      1.65612  0.000637757
      1.21850      1.65612  0.000656572
      1.22350      1.65612  0.000640621
      1.22850      1.65612  0.000637940
      1.23350      1.65612  0.000639479
      1.23850      1.65612  0.000633662
      1.24350      1.65612  0.000620512
      1.24850      1.65612  0.000624281
      1.25350      1.65612  0.000625757
      1.25850      1.65612  0.000617339
      1.26350      1.65612  0.000615776
      1.26850      1.65612  0.000614462
      1.27350      1.65612  0.000596795
      1.27850      1.65612  0.000613070
      1.28350      1.65612  0.000589297
      1.28850      1.65612  0.000595398
      1.29350      1.65612  0.000578904
      1.29850      1.65612  0.000576305
      1.30350      1.65612  0.000558916
      1.30850      1.65612  0.000558628
      1.31350      1.65612  0.000549386
      1.31850      1.65612  0.000548880
      1.32350      1.65612  0.000535824
      1.32850      1.65612  0.000527021
      1.33350      1.65612  0.000522236
      1.33850      1.65612  0.000508121
      1.34350      1.65612  0.000505679
      1.34850      1.65612  0.000496269
      1.35350      1.65612  0.000480686
      1.35850      1.65612  0.000472867
      1.36350      1.65612  0.000463923
      1.36850      1.65612  0.000456908
      1.37350      1.65612  0.000444483
      1.37850      1.65612  0.000434063
      1.38350      1.65612  0.000411001
      1.38850      1.65612  0.000412167
      1.39350      1.65612  0.000399675
      1.39850      1.65612  0.000388883
      1.40350      1.65612  0.000379970
      1.40850      1.65612  0.000367920
      1.41350      1.65612  0.000358014
      1.41850      1.65612  0.000349150
      1.42350      1.65612  0.000339254
      1.42850      1.65612  0.000325418
      1.43350      1.65612  0.000313280
      1.43850      1.65612  0.000306883
      1.44350      1.65612  0.000289654
      1.44850      1.65612  0.000286641
      1.45350      1.65612  0.000282593
      1.45850      1.65612  0.000277999
      1.46350      1.65612  0.000259694
      1.46850      1.65612  0.000260583
      1.47350      1.65612  0.000244188
      1.47850      1.65612  0.000244699
      1.48350      1.65612  0.000238793
      1.48850      1.65612  0.000225943
      1.49350      1.65612  0.000222780
      1.49850      1.65612  0.000212066
      1.50350      1.65612  0.000209665
      1.50850      1.65612  0.000202397
      1.51350      1.65612  0.000195624
      1.51850      1.65612  0.000189689
      1.52350      1.65612  0.000188018
      1.52850      1.65612  0.000178141
      1.53400      1.65612  0.000173544
      1.54000      1.65612  0.000167564
      1.54600      1.65612  0.000161061
      1.55200      1.65612  0.000154062
      1.55800      1.65612  0.000154406
      1.56400      1.65612  0.000146913
      1.57050      1.65612  0.000141619
      1.57750      1.65612  0.000138594
      1.58450      1.65612  0.000132143
      1.59150      1.65612  0.000130420
      1.59850      1.65612  0.000127428
      1.60550      1.65612  0.000122726
      1.61250      1.65612  0.000120688
      1.61950      1.65612  0.000116257
      1.62650      1.65612  0.000115604
      1.63350      1.65612  0.000114483
      1.64050      1.65612  0.000107339
      1.64750      1.65612  0.000109164
      1.65450      1.65612  0.000105526
      1.66150      1.65612  0.000104837
      1.66850      1.65612  0.000102709
      1.67600      1.65612  0.000102490
      1.68400      1.65612  0.000101013
      1.69200      1.65612  0.000100358
      1.70000      1.65612  0.000101212
      1.70800      1.65612 9.78171e-005
      1.71600      1.65612 9.71394e-005
      1.72400      1.65612 9.56241e-005
      1.73200      1.65612 9.61442e-005
      1.74000      1.65612 9.49910e-005
      1.74800      1.65612 9.92594e-005
      1.75600      1.65612 9.99455e-005
      1.76400      1.65612 9.78431e-005
      1.77200      1.65612 9.92964e-005
      1.78000      1.65612 9.74075e-005
      1.78800      1.65612  0.000100037
      1.79600      1.65612 9.87533e-005
      1.80500      1.65612 9.86182e-005
      1.81500      1.65612 9.97985e-005
      1.82500      1.65612  0.000102267
      1.83500      1.65612  0.000102103
      1.84500      1.65612  0.000104199
      1.85500      1.65612  0.000105008
      1.86500      1.65612  0.000102793
      1.87500      1.65612  0.000101953
      1.88500      1.65612  0.000107787
      1.89500      1.65612  0.000106939
      1.90500      1.65612  0.000109941
      1.91500      1.65612  0.000110689
      1.92500      1.65612  0.000113748
      1.93500      1.65612  0.000112445
      1.94500      1.65612  0.000114496
      1.95500      1.65612  0.000116481
      1.96500      1.65612  0.000114276
      1.97500      1.65612  0.000114419
      1.98500      1.65612  0.000114208
      1.99500      1.65612  0.000119131
      2.00500      1.65612  0.000116958
      2.01500      1.65612  0.000120236
      2.02500      1.65612  0.000118755
      2.03500      1.65612  0.000119522
      2.04500      1.65612  0.000120657
      2.05500      1.65612  0.000119783
      2.06500      1.65612  0.000123866
      2.07500      1.65612  0.000124652
      2.08500      1.65612  0.000117936
      2.09500      1.65612  0.000125384
      2.10500      1.65612  0.000124854
      2.11500      1.65612  0.000124410
      2.12500      1.65612  0.000121136
      2.13500      1.65612  0.000124542
      2.14500      1.65612  0.000126461
      2.15500      1.65612  0.000128108
      2.16500      1.65612  0.000127640
      2.17500      1.65612  0.000134772
      2.18500      1.65612  0.000133026
      2.19500      1.65612  0.000135614
      2.20500      1.65612  0.000136730
      2.21500      1.65612  0.000139460
      2.22500      1.65612  0.000141508
      2.23500      1.65612  0.000136976
      2.24500      1.65612  0.000147616
      2.25500      1.65612  0.000149418
      2.26500      1.65612  0.000143433
      2.27500      1.65612  0.000151164
      2.28500      1.65612  0.000166967
      2.29500      1.65612  0.000150270
      2.30500      1.65612  0.000154331
      2.31500      1.65612  0.000155323
      2.32500      1.65612  0.000144277
      2.33500      1.65612  0.000145532
      2.34500      1.65612  0.000148285
      2.35500      1.65612  0.000145712
      2.36500      1.65612  0.000143772
      2.37500      1.65612  0.000150507
      2.38600      1.65612  0.000148278
      2.40000      1.65612  0.000150672
