data provided by Paul Lucey in 2006
derived using techniques of Lucey 1998
Forsterite, Fo= 89.0000
minimum grain size (microns)= 0.000000
maximum grain size=(microns) 45.0000
column 1= wavelength, micrometers
column 2= real index
column 3= imaginary index
 
     0.450000      1.65612 1.96084e-005
     0.455000      1.65612 1.94224e-005
     0.460000      1.65612 1.89963e-005
     0.465000      1.65612 1.84982e-005
     0.470000      1.65612 1.81641e-005
     0.475000      1.65612 1.77010e-005
     0.480000      1.65612 1.69244e-005
     0.485000      1.65612 1.65543e-005
     0.490000      1.65612 1.60522e-005
     0.495000      1.65612 1.56611e-005
     0.500000      1.65612 1.49490e-005
     0.505000      1.65612 1.42218e-005
     0.510000      1.65612 1.35427e-005
     0.515000      1.65612 1.30396e-005
     0.520000      1.65612 1.26535e-005
     0.525000      1.65612 1.23230e-005
     0.530000      1.65612 1.20499e-005
     0.535000      1.65612 1.16378e-005
     0.540000      1.65612 1.12838e-005
     0.545000      1.65612 1.09877e-005
     0.550000      1.65612 1.07516e-005
     0.555000      1.65612 1.05786e-005
     0.560000      1.65612 1.03316e-005
     0.565000      1.65612 1.02175e-005
     0.570000      1.65612 1.01685e-005
     0.575000      1.65612 1.00475e-005
     0.580000      1.65612 1.00645e-005
     0.585000      1.65612 1.00085e-005
     0.590000      1.65612 1.00225e-005
     0.595000      1.65612 1.00355e-005
     0.600000      1.65612 1.01925e-005
     0.605000      1.65612 1.02776e-005
     0.610000      1.65612 1.05106e-005
     0.615000      1.65612 1.05966e-005
     0.620000      1.65612 1.08347e-005
     0.625000      1.65612 1.10737e-005
     0.630000      1.65612 1.12397e-005
     0.635000      1.65612 1.14058e-005
     0.640000      1.65612 1.14958e-005
     0.645000      1.65612 1.15858e-005
     0.650000      1.65612 1.16758e-005
     0.655000      1.65612 1.16058e-005
     0.660000      1.65612 1.16938e-005
     0.665000      1.65612 1.17829e-005
     0.670000      1.65612 1.17899e-005
     0.675000      1.65612 1.17128e-005
     0.680000      1.65612 1.17999e-005
     0.685000      1.65612 1.18869e-005
     0.690000      1.65612 1.20579e-005
     0.695000      1.65612 1.23140e-005
     0.700000      1.65612 1.24880e-005
     0.705000      1.65612 1.26635e-005
     0.710000      1.65612 1.27536e-005
     0.715000      1.65612 1.29296e-005
     0.720000      1.65612 1.30206e-005
     0.725000      1.65612 1.32877e-005
     0.730000      1.65612 1.34687e-005
     0.735000      1.65612 1.37397e-005
     0.740000      1.65612 1.41048e-005
     0.745000      1.65612 1.44729e-005
     0.750000      1.65612 1.48450e-005
     0.755000      1.65612 1.53141e-005
     0.760000      1.65612 1.57872e-005
     0.765000      1.65612 1.61722e-005
     0.770000      1.65612 1.66553e-005
     0.775000      1.65612 1.73345e-005
     0.780000      1.65612 1.80211e-005
     0.785000      1.65612 1.86192e-005
     0.790000      1.65612 1.92233e-005
     0.795000      1.65612 1.99325e-005
     0.800000      1.65612 2.05516e-005
     0.805000      1.65612 2.11767e-005
     0.810000      1.65612 2.20089e-005
     0.815000      1.65612 2.27495e-005
     0.820000      1.65612 2.32957e-005
     0.825000      1.65612 2.38468e-005
     0.830000      1.65612 2.47119e-005
     0.835000      1.65612 2.52761e-005
     0.840000      1.65612 2.59492e-005
     0.845000      1.65612 2.66293e-005
     0.850000      1.65612 2.72104e-005
     0.855000      1.65612 2.77961e-005
     0.860000      1.65612 2.83882e-005
     0.865000      1.65612 2.88773e-005
     0.870000      1.65612 2.94784e-005
     0.875000      1.65612 3.01945e-005
     0.880000      1.65612 3.06976e-005
     0.885000      1.65612 3.12047e-005
     0.890000      1.65612 3.19379e-005
     0.895000      1.65612 3.24540e-005
     0.900000      1.65612 3.31996e-005
     0.905000      1.65612 3.40658e-005
     0.910000      1.65612 3.48260e-005
     0.915000      1.65612 3.57081e-005
     0.920000      1.65612 3.68314e-005
     0.925000      1.65612 3.78481e-005
     0.930000      1.65612 3.93454e-005
     0.935000      1.65612 4.06236e-005
     0.940000      1.65612 4.19139e-005
     0.945000      1.65612 4.33377e-005
     0.950000      1.65612 4.50190e-005
     0.955000      1.65612 4.68414e-005
     0.960000      1.65612 4.88073e-005
     0.965000      1.65612 5.06716e-005
     0.970000      1.65612 5.24320e-005
     0.975000      1.65612 5.42118e-005
     0.980000      1.65612 5.63903e-005
     0.985000      1.65612 5.85942e-005
     0.990000      1.65612 6.08237e-005
     0.995000      1.65612 6.29476e-005
      1.00000      1.65612 6.50950e-005
      1.00500      1.65612 6.71344e-005
      1.01000      1.65612 6.93274e-005
      1.01500      1.65612 7.11427e-005
      1.02000      1.65612 7.27065e-005
      1.02500      1.65612 7.45549e-005
      1.03000      1.65612 7.60112e-005
      1.03500      1.65612 7.74795e-005
      1.04000      1.65612 7.86842e-005
      1.04500      1.65612 7.94794e-005
      1.05000      1.65612 8.04196e-005
      1.05500      1.65612 8.12247e-005
      1.06000      1.65612 8.14678e-005
      1.06500      1.65612 8.15688e-005
      1.07000      1.65612 8.12387e-005
      1.07500      1.65612 8.11887e-005
      1.08000      1.65612 8.05616e-005
      1.08500      1.65612 7.97825e-005
      1.09000      1.65612 7.89933e-005
      1.09500      1.65612 7.76180e-005
      1.10000      1.65612 7.68104e-005
      1.10500      1.65612 7.54121e-005
      1.11000      1.65612 7.41488e-005
      1.11500      1.65612 7.28736e-005
      1.12000      1.65612 7.15878e-005
      1.12500      1.65612 7.01435e-005
      1.13000      1.65612 6.91303e-005
      1.13500      1.65612 6.81071e-005
      1.14000      1.65612 6.70744e-005
      1.14500      1.65612 6.60332e-005
      1.15000      1.65612 6.52791e-005
      1.15500      1.65612 6.46669e-005
      1.16000      1.65612 6.35987e-005
      1.16500      1.65612 6.31226e-005
      1.17000      1.65612 6.24900e-005
      1.17500      1.65612 6.16988e-005
      1.18000      1.65612 6.13548e-005
      1.18500      1.65612 6.10067e-005
      1.19000      1.65612 6.05006e-005
      1.19500      1.65612 6.01425e-005
      1.20000      1.65612 6.03946e-005
      1.20500      1.65612 5.98745e-005
      1.21000      1.65612 5.98125e-005
      1.21500      1.65612 5.95944e-005
      1.22000      1.65612 5.90603e-005
      1.22500      1.65612 5.85202e-005
      1.23000      1.65612 5.78181e-005
      1.23500      1.65612 5.77380e-005
      1.24000      1.65612 5.76560e-005
      1.24500      1.65612 5.70964e-005
      1.25000      1.65612 5.68484e-005
      1.25500      1.65612 5.64373e-005
      1.26000      1.65612 5.57031e-005
      1.26500      1.65612 5.51210e-005
      1.27000      1.65612 5.46949e-005
      1.27500      1.65612 5.44259e-005
      1.28000      1.65612 5.38298e-005
      1.28500      1.65612 5.32276e-005
      1.29000      1.65612 5.22940e-005
      1.29500      1.65612 5.16798e-005
      1.30000      1.65612 5.10607e-005
      1.30500      1.65612 5.02706e-005
      1.31000      1.65612 4.94754e-005
      1.31500      1.65612 4.86732e-005
      1.32000      1.65612 4.78651e-005
      1.32500      1.65612 4.68844e-005
      1.33000      1.65612 4.60622e-005
      1.33500      1.65612 4.52341e-005
      1.34000      1.65612 4.43999e-005
      1.34500      1.65612 4.37267e-005
      1.35000      1.65612 4.30486e-005
      1.35500      1.65612 4.21959e-005
      1.36000      1.65612 4.09987e-005
      1.36500      1.65612 3.99635e-005
      1.37000      1.65612 3.90903e-005
      1.37500      1.65612 3.82121e-005
      1.38000      1.65612 3.74975e-005
      1.38500      1.65612 3.64343e-005
      1.39000      1.65612 3.55371e-005
      1.39500      1.65612 3.49770e-005
      1.40000      1.65612 3.38948e-005
      1.40500      1.65612 3.29786e-005
      1.41000      1.65612 3.20569e-005
      1.41500      1.65612 3.13018e-005
      1.42000      1.65612 3.07156e-005
      1.42500      1.65612 2.97755e-005
      1.43000      1.65612 2.90043e-005
      1.43500      1.65612 2.80531e-005
      1.44000      1.65612 2.72715e-005
      1.44500      1.65612 2.64843e-005
      1.45000      1.65612 2.56911e-005
      1.45500      1.65612 2.50710e-005
      1.46000      1.65612 2.42679e-005
      1.46500      1.65612 2.38168e-005
      1.47000      1.65612 2.30046e-005
      1.47500      1.65612 2.23660e-005
      1.48000      1.65612 2.17228e-005
      1.48500      1.65612 2.10757e-005
      1.49000      1.65612 2.06046e-005
      1.49500      1.65612 1.99495e-005
      1.50000      1.65612 1.94714e-005
      1.50500      1.65612 1.89903e-005
      1.51000      1.65612 1.85052e-005
      1.51500      1.65612 1.80171e-005
      1.52000      1.65612 1.75260e-005
      1.52500      1.65612 1.70304e-005
      1.53000      1.65612 1.67173e-005
      1.53500      1.65612 1.62162e-005
      1.54000      1.65612 1.58982e-005
      1.54500      1.65612 1.55771e-005
      1.55000      1.65612 1.52541e-005
      1.55500      1.65612 1.49290e-005
      1.56000      1.65612 1.45999e-005
      1.56500      1.65612 1.44579e-005
      1.57000      1.65612 1.41268e-005
      1.57500      1.65612 1.37928e-005
      1.58000      1.65612 1.34567e-005
      1.58500      1.65612 1.33087e-005
      1.59000      1.65612 1.29686e-005
      1.59500      1.65612 1.30086e-005
      1.60000      1.65612 1.28566e-005
      1.60500      1.65612 1.25125e-005
      1.61000      1.65612 1.23580e-005
      1.61500      1.65612 1.22019e-005
      1.62000      1.65612 1.22389e-005
      1.62500      1.65612 1.20819e-005
      1.63000      1.65612 1.19229e-005
      1.63500      1.65612 1.19599e-005
      1.64000      1.65612 1.17999e-005
      1.64500      1.65612 1.16388e-005
      1.65000      1.65612 1.14758e-005
      1.65500      1.65612 1.15108e-005
      1.66000      1.65612 1.15448e-005
      1.66500      1.65612 1.11797e-005
      1.67000      1.65612 1.12137e-005
      1.67500      1.65612 1.10467e-005
      1.68000      1.65612 1.08777e-005
      1.68500      1.65612 1.11127e-005
      1.69000      1.65612 1.09427e-005
      1.69500      1.65612 1.09757e-005
      1.70000      1.65612 1.12107e-005
      1.70500      1.65612 1.10397e-005
      1.71000      1.65612 1.08677e-005
      1.71500      1.65612 1.08997e-005
      1.72000      1.65612 1.09307e-005
      1.72500      1.65612 1.09627e-005
      1.73000      1.65612 1.09937e-005
      1.73500      1.65612 1.10257e-005
      1.74000      1.65612 1.10577e-005
      1.74500      1.65612 1.10897e-005
      1.75000      1.65612 1.11207e-005
      1.75500      1.65612 1.11527e-005
      1.76000      1.65612 1.11847e-005
      1.76500      1.65612 1.12177e-005
      1.77000      1.65612 1.12477e-005
      1.77500      1.65612 1.12798e-005
      1.78000      1.65612 1.13118e-005
      1.78500      1.65612 1.13438e-005
      1.79000      1.65612 1.13758e-005
      1.79500      1.65612 1.14078e-005
      1.80000      1.65612 1.14398e-005
      1.80500      1.65612 1.14718e-005
      1.81000      1.65612 1.15028e-005
      1.81500      1.65612 1.17518e-005
      1.82000      1.65612 1.17849e-005
      1.82500      1.65612 1.15988e-005
      1.83000      1.65612 1.18489e-005
      1.83500      1.65612 1.16618e-005
      1.84000      1.65612 1.19139e-005
      1.84500      1.65612 1.17258e-005
      1.85000      1.65612 1.19789e-005
      1.85500      1.65612 1.20109e-005
      1.86000      1.65612 1.20439e-005
      1.86500      1.65612 1.18529e-005
      1.87000      1.65612 1.21089e-005
      1.87500      1.65612 1.23650e-005
      1.88000      1.65612 1.19469e-005
      1.88500      1.65612 1.22059e-005
      1.89000      1.65612 1.24650e-005
      1.89500      1.65612 1.24980e-005
      1.90000      1.65612 1.29866e-005
      1.90500      1.65612 1.30206e-005
      1.91000      1.65612 1.28256e-005
      1.91500      1.65612 1.30896e-005
      1.92000      1.65612 1.33537e-005
      1.92500      1.65612 1.31576e-005
      1.93000      1.65612 1.34227e-005
      1.93500      1.65612 1.34577e-005
      1.94000      1.65612 1.34927e-005
      1.94500      1.65612 1.35277e-005
      1.95000      1.65612 1.35617e-005
      1.95500      1.65612 1.35967e-005
      1.96000      1.65612 1.36317e-005
      1.96500      1.65612 1.36667e-005
      1.97000      1.65612 1.37007e-005
      1.97500      1.65612 1.37357e-005
      1.98000      1.65612 1.37708e-005
      1.98500      1.65612 1.35677e-005
      1.99000      1.65612 1.38398e-005
      1.99500      1.65612 1.36357e-005
      2.00000      1.65612 1.36697e-005
      2.00500      1.65612 1.37037e-005
      2.01000      1.65612 1.37377e-005
      2.01500      1.65612 1.37718e-005
      2.02000      1.65612 1.35647e-005
      2.02500      1.65612 1.35977e-005
      2.03000      1.65612 1.38748e-005
      2.03500      1.65612 1.36647e-005
      2.04000      1.65612 1.36987e-005
      2.04500      1.65612 1.37317e-005
      2.05000      1.65612 1.37658e-005
      2.05500      1.65612 1.37998e-005
      2.06000      1.65612 1.35857e-005
      2.06500      1.65612 1.38658e-005
      2.07000      1.65612 1.36517e-005
      2.07500      1.65612 1.39328e-005
      2.08000      1.65612 1.37177e-005
      2.08500      1.65612 1.37508e-005
      2.09000      1.65612 1.37838e-005
      2.09500      1.65612 1.38158e-005
      2.10000      1.65612 1.38488e-005
      2.10500      1.65612 1.38818e-005
      2.11000      1.65612 1.39148e-005
      2.11500      1.65612 1.39478e-005
      2.12000      1.65612 1.39808e-005
      2.12500      1.65612 1.37598e-005
      2.13000      1.65612 1.40468e-005
      2.13500      1.65612 1.38238e-005
      2.14000      1.65612 1.38568e-005
      2.14500      1.65612 1.38888e-005
      2.15000      1.65612 1.39208e-005
      2.15500      1.65612 1.39538e-005
      2.16000      1.65612 1.39858e-005
      2.16500      1.65612 1.40188e-005
      2.17000      1.65612 1.40508e-005
      2.17500      1.65612 1.43439e-005
      2.18000      1.65612 1.41158e-005
      2.18500      1.65612 1.41478e-005
      2.19000      1.65612 1.41798e-005
      2.19500      1.65612 1.44759e-005
      2.20000      1.65612 1.45089e-005
      2.20500      1.65612 1.45419e-005
      2.21000      1.65612 1.45749e-005
      2.21500      1.65612 1.46079e-005
      2.22000      1.65612 1.46399e-005
      2.22500      1.65612 1.49410e-005
      2.23000      1.65612 1.49750e-005
      2.23500      1.65612 1.50080e-005
      2.24000      1.65612 1.50420e-005
      2.24500      1.65612 1.50750e-005
      2.25000      1.65612 1.51080e-005
      2.25500      1.65612 1.51420e-005
      2.26000      1.65612 1.51760e-005
      2.26500      1.65612 1.54811e-005
      2.27000      1.65612 1.52430e-005
      2.27500      1.65612 1.55491e-005
      2.28000      1.65612 1.53101e-005
      2.28500      1.65612 1.56171e-005
      2.29000      1.65612 1.53771e-005
      2.29500      1.65612 1.54111e-005
      2.30000      1.65612 1.54441e-005
      2.30500      1.65612 1.54781e-005
      2.31000      1.65612 1.55111e-005
      2.31500      1.65612 1.55451e-005
      2.32000      1.65612 1.55781e-005
      2.32500      1.65612 1.56121e-005
      2.33000      1.65612 1.56461e-005
      2.33500      1.65612 1.56801e-005
      2.34000      1.65612 1.57131e-005
      2.34500      1.65612 1.57461e-005
      2.35000      1.65612 1.54981e-005
      2.35500      1.65612 1.52491e-005
      2.36000      1.65612 1.52811e-005
      2.36500      1.65612 1.53141e-005
      2.37000      1.65612 1.56291e-005
      2.37500      1.65612 1.56621e-005
      2.38000      1.65612 1.56961e-005
      2.38500      1.65612 1.57291e-005
      2.39000      1.65612 1.57622e-005
      2.39500      1.65612 1.57942e-005
      2.40000      1.65612 1.58272e-005
      2.40500      1.65612 1.55731e-005
      2.41000      1.65612 1.56051e-005
      2.41500      1.65612 1.59272e-005
      2.42000      1.65612 1.59592e-005
      2.42500      1.65612 1.59922e-005
      2.43000      1.65612 1.60252e-005
      2.43500      1.65612 1.60582e-005
      2.44000      1.65612 1.60912e-005
      2.44500      1.65612 1.61252e-005
      2.45000      1.65612 1.61582e-005
      2.45500      1.65612 1.61902e-005
      2.46000      1.65612 1.62232e-005
      2.46500      1.65612 1.62563e-005
      2.47000      1.65612 1.62893e-005
      2.47500      1.65612 1.60262e-005
      2.48000      1.65612 1.63563e-005
      2.48500      1.65612 1.63883e-005
      2.49000      1.65612 1.64213e-005
      2.49500      1.65612 1.67534e-005
      2.50000      1.65612 1.67874e-005
      2.50500      1.65612 1.65203e-005
      2.51000      1.65612 1.65533e-005
      2.51500      1.65612 1.65863e-005
      2.52000      1.65612 1.69214e-005
      2.52500      1.65612 1.66523e-005
      2.53000      1.65612 1.66853e-005
      2.53500      1.65612 1.67183e-005
      2.54000      1.65612 1.64463e-005
      2.54500      1.65612 1.64793e-005
      2.55000      1.65612 1.62052e-005
      2.55500      1.65612 1.56251e-005
      2.56000      1.65612 1.59612e-005
      2.56500      1.65612 1.63003e-005
      2.57000      1.65612 1.51000e-005
      2.57500      1.65612 1.60552e-005
      2.58000      1.65612 1.57772e-005
      2.58500      1.65612 1.61182e-005
      2.59000      1.65612 1.55281e-005
      2.59500      1.65612 1.61802e-005
      2.60000      1.65612 1.52761e-005
