data provided by Paul Lucey in 2006
derived using techniques of Lucey 1998
Forsterite, Fo= 92.0000
minimum grain size (microns)= 0.000000
maximum grain size=(microns) 45.0000
column 1= wavelength, micrometers
column 2= real index
column 3= imaginary index
 
     0.450000      1.65036 1.16288e-005
     0.455000      1.65036 1.14178e-005
     0.460000      1.65036 1.11997e-005
     0.465000      1.65036 1.10317e-005
     0.470000      1.65036 1.08007e-005
     0.475000      1.65036 1.06206e-005
     0.480000      1.65036 1.03756e-005
     0.485000      1.65036 1.03636e-005
     0.490000      1.65036 1.02876e-005
     0.495000      1.65036 1.01485e-005
     0.500000      1.65036 9.94149e-006
     0.505000      1.65036 9.66643e-006
     0.510000      1.65036 9.57341e-006
     0.515000      1.65036 9.54041e-006
     0.520000      1.65036 9.37637e-006
     0.525000      1.65036 9.33737e-006
     0.530000      1.65036 9.23035e-006
     0.535000      1.65036 9.18634e-006
     0.540000      1.65036 9.07231e-006
     0.545000      1.65036 8.95529e-006
     0.550000      1.65036 8.90228e-006
     0.555000      1.65036 8.84727e-006
     0.560000      1.65036 8.78926e-006
     0.565000      1.65036 8.72925e-006
     0.570000      1.65036 8.73625e-006
     0.575000      1.65036 8.74225e-006
     0.580000      1.65036 8.67623e-006
     0.585000      1.65036 8.75025e-006
     0.590000      1.65036 8.68124e-006
     0.595000      1.65036 8.75425e-006
     0.600000      1.65036 8.75425e-006
     0.605000      1.65036 8.82726e-006
     0.610000      1.65036 8.90028e-006
     0.615000      1.65036 8.97329e-006
     0.620000      1.65036 8.97029e-006
     0.625000      1.65036 9.04231e-006
     0.630000      1.65036 9.03731e-006
     0.635000      1.65036 9.18734e-006
     0.640000      1.65036 9.25935e-006
     0.645000      1.65036 9.25235e-006
     0.650000      1.65036 9.08532e-006
     0.655000      1.65036 9.15533e-006
     0.660000      1.65036 9.22534e-006
     0.665000      1.65036 9.05131e-006
     0.670000      1.65036 9.20134e-006
     0.675000      1.65036 9.26935e-006
     0.680000      1.65036 9.33837e-006
     0.685000      1.65036 9.40738e-006
     0.690000      1.65036 9.39138e-006
     0.695000      1.65036 9.62943e-006
     0.700000      1.65036 9.78446e-006
     0.705000      1.65036 9.85447e-006
     0.710000      1.65036 9.92448e-006
     0.715000      1.65036 1.01695e-005
     0.720000      1.65036 1.02405e-005
     0.725000      1.65036 1.05786e-005
     0.730000      1.65036 1.06516e-005
     0.735000      1.65036 1.10847e-005
     0.740000      1.65036 1.14328e-005
     0.745000      1.65036 1.16928e-005
     0.750000      1.65036 1.19559e-005
     0.755000      1.65036 1.21279e-005
     0.760000      1.65036 1.25815e-005
     0.765000      1.65036 1.30406e-005
     0.770000      1.65036 1.33157e-005
     0.775000      1.65036 1.38798e-005
     0.780000      1.65036 1.41608e-005
     0.785000      1.65036 1.47359e-005
     0.790000      1.65036 1.49270e-005
     0.795000      1.65036 1.55121e-005
     0.800000      1.65036 1.61042e-005
     0.805000      1.65036 1.64043e-005
     0.810000      1.65036 1.69064e-005
     0.815000      1.65036 1.72124e-005
     0.820000      1.65036 1.76230e-005
     0.825000      1.65036 1.79351e-005
     0.830000      1.65036 1.83522e-005
     0.835000      1.65036 1.87733e-005
     0.840000      1.65036 1.91983e-005
     0.845000      1.65036 1.95224e-005
     0.850000      1.65036 1.97434e-005
     0.855000      1.65036 1.99655e-005
     0.860000      1.65036 2.01895e-005
     0.865000      1.65036 2.03066e-005
     0.870000      1.65036 2.08567e-005
     0.875000      1.65036 2.13028e-005
     0.880000      1.65036 2.17529e-005
     0.885000      1.65036 2.22069e-005
     0.890000      1.65036 2.25545e-005
     0.895000      1.65036 2.30156e-005
     0.900000      1.65036 2.37057e-005
     0.905000      1.65036 2.39498e-005
     0.910000      1.65036 2.46509e-005
     0.915000      1.65036 2.54721e-005
     0.920000      1.65036 2.60712e-005
     0.925000      1.65036 2.70244e-005
     0.930000      1.65036 2.78701e-005
     0.935000      1.65036 2.87242e-005
     0.940000      1.65036 2.99415e-005
     0.945000      1.65036 3.06946e-005
     0.950000      1.65036 3.21749e-005
     0.955000      1.65036 3.30676e-005
     0.960000      1.65036 3.44549e-005
     0.965000      1.65036 3.59792e-005
     0.970000      1.65036 3.73965e-005
     0.975000      1.65036 3.84572e-005
     0.980000      1.65036 4.01525e-005
     0.985000      1.65036 4.14898e-005
     0.990000      1.65036 4.25865e-005
     0.995000      1.65036 4.38208e-005
      1.00000      1.65036 4.57081e-005
      1.00500      1.65036 4.65833e-005
      1.01000      1.65036 4.83752e-005
      1.01500      1.65036 4.91373e-005
      1.02000      1.65036 5.03016e-005
      1.02500      1.65036 5.10777e-005
      1.03000      1.65036 5.22590e-005
      1.03500      1.65036 5.31826e-005
      1.04000      1.65036 5.37097e-005
      1.04500      1.65036 5.42388e-005
      1.05000      1.65036 5.42258e-005
      1.05500      1.65036 5.50310e-005
      1.06000      1.65036 5.48800e-005
      1.06500      1.65036 5.45869e-005
      1.07000      1.65036 5.44269e-005
      1.07500      1.65036 5.42639e-005
      1.08000      1.65036 5.35387e-005
      1.08500      1.65036 5.32266e-005
      1.09000      1.65036 5.24870e-005
      1.09500      1.65036 5.18819e-005
      1.10000      1.65036 5.07036e-005
      1.10500      1.65036 5.00825e-005
      1.11000      1.65036 4.94544e-005
      1.11500      1.65036 4.85342e-005
      1.12000      1.65036 4.77480e-005
      1.12500      1.65036 4.69554e-005
      1.13000      1.65036 4.65873e-005
      1.13500      1.65036 4.59252e-005
      1.14000      1.65036 4.55461e-005
      1.14500      1.65036 4.50170e-005
      1.15000      1.65036 4.44829e-005
      1.15500      1.65036 4.40888e-005
      1.16000      1.65036 4.36907e-005
      1.16500      1.65036 4.32877e-005
      1.17000      1.65036 4.31776e-005
      1.17500      1.65036 4.29146e-005
      1.18000      1.65036 4.27986e-005
      1.18500      1.65036 4.25295e-005
      1.19000      1.65036 4.24080e-005
      1.19500      1.65036 4.22840e-005
      1.20000      1.65036 4.30686e-005
      1.20500      1.65036 4.29426e-005
      1.21000      1.65036 4.29676e-005
      1.21500      1.65036 4.26845e-005
      1.22000      1.65036 4.19349e-005
      1.22500      1.65036 4.17979e-005
      1.23000      1.65036 4.16578e-005
      1.23500      1.65036 4.18269e-005
      1.24000      1.65036 4.04336e-005
      1.24500      1.65036 4.02826e-005
      1.25000      1.65036 4.01295e-005
      1.25500      1.65036 3.98165e-005
      1.26000      1.65036 3.96584e-005
      1.26500      1.65036 3.91793e-005
      1.27000      1.65036 3.88563e-005
      1.27500      1.65036 3.83692e-005
      1.28000      1.65036 3.80381e-005
      1.28500      1.65036 3.78641e-005
      1.29000      1.65036 3.73645e-005
      1.29500      1.65036 3.68614e-005
      1.30000      1.65036 3.66783e-005
      1.30500      1.65036 3.58402e-005
      1.31000      1.65036 3.53221e-005
      1.31500      1.65036 3.48010e-005
      1.32000      1.65036 3.44389e-005
      1.32500      1.65036 3.39088e-005
      1.33000      1.65036 3.33737e-005
      1.33500      1.65036 3.28346e-005
      1.34000      1.65036 3.22910e-005
      1.34500      1.65036 3.17428e-005
      1.35000      1.65036 3.16928e-005
      1.35500      1.65036 3.08007e-005
      1.36000      1.65036 3.05766e-005
      1.36500      1.65036 2.95044e-005
      1.37000      1.65036 2.94434e-005
      1.37500      1.65036 2.90393e-005
      1.38000      1.65036 2.86332e-005
      1.38500      1.65036 2.77090e-005
      1.39000      1.65036 2.71224e-005
      1.39500      1.65036 2.65313e-005
      1.40000      1.65036 2.66263e-005
      1.40500      1.65036 2.62012e-005
      1.41000      1.65036 2.57732e-005
      1.41500      1.65036 2.51670e-005
      1.42000      1.65036 2.47309e-005
      1.42500      1.65036 2.41168e-005
      1.43000      1.65036 2.36737e-005
      1.43500      1.65036 2.32266e-005
      1.44000      1.65036 2.27776e-005
      1.44500      1.65036 2.25015e-005
      1.45000      1.65036 2.22239e-005
      1.45500      1.65036 2.19429e-005
      1.46000      1.65036 2.13018e-005
      1.46500      1.65036 2.08367e-005
      1.47000      1.65036 2.07276e-005
      1.47500      1.65036 2.02556e-005
      1.48000      1.65036 1.99625e-005
      1.48500      1.65036 1.96654e-005
      1.49000      1.65036 1.91863e-005
      1.49500      1.65036 1.90673e-005
      1.50000      1.65036 1.87643e-005
      1.50500      1.65036 1.84582e-005
      1.51000      1.65036 1.81511e-005
      1.51500      1.65036 1.78411e-005
      1.52000      1.65036 1.77140e-005
      1.52500      1.65036 1.74005e-005
      1.53000      1.65036 1.74575e-005
      1.53500      1.65036 1.71404e-005
      1.54000      1.65036 1.70084e-005
      1.54500      1.65036 1.68744e-005
      1.55000      1.65036 1.65513e-005
      1.55500      1.65036 1.64153e-005
      1.56000      1.65036 1.60872e-005
      1.56500      1.65036 1.61392e-005
      1.57000      1.65036 1.58082e-005
      1.57500      1.65036 1.58592e-005
      1.58000      1.65036 1.57161e-005
      1.58500      1.65036 1.55731e-005
      1.59000      1.65036 1.54281e-005
      1.59500      1.65036 1.54771e-005
      1.60000      1.65036 1.51360e-005
      1.60500      1.65036 1.49880e-005
      1.61000      1.65036 1.48390e-005
      1.61500      1.65036 1.46889e-005
      1.62000      1.65036 1.49310e-005
      1.62500      1.65036 1.47800e-005
      1.63000      1.65036 1.46269e-005
      1.63500      1.65036 1.48710e-005
      1.64000      1.65036 1.45169e-005
      1.64500      1.65036 1.45609e-005
      1.65000      1.65036 1.44049e-005
      1.65500      1.65036 1.44489e-005
      1.66000      1.65036 1.38868e-005
      1.66500      1.65036 1.39288e-005
      1.67000      1.65036 1.37678e-005
      1.67500      1.65036 1.36057e-005
      1.68000      1.65036 1.36457e-005
      1.68500      1.65036 1.36857e-005
      1.69000      1.65036 1.37267e-005
      1.69500      1.65036 1.35617e-005
      1.70000      1.65036 1.36017e-005
      1.70500      1.65036 1.38488e-005
      1.71000      1.65036 1.38888e-005
      1.71500      1.65036 1.37217e-005
      1.72000      1.65036 1.37618e-005
      1.72500      1.65036 1.35927e-005
      1.73000      1.65036 1.38418e-005
      1.73500      1.65036 1.38818e-005
      1.74000      1.65036 1.39218e-005
      1.74500      1.65036 1.39618e-005
      1.75000      1.65036 1.37898e-005
      1.75500      1.65036 1.38288e-005
      1.76000      1.65036 1.40818e-005
      1.76500      1.65036 1.39068e-005
      1.77000      1.65036 1.39468e-005
      1.77500      1.65036 1.39868e-005
      1.78000      1.65036 1.40258e-005
      1.78500      1.65036 1.40648e-005
      1.79000      1.65036 1.41038e-005
      1.79500      1.65036 1.41438e-005
      1.80000      1.65036 1.41828e-005
      1.80500      1.65036 1.42228e-005
      1.81000      1.65036 1.40428e-005
      1.81500      1.65036 1.40808e-005
      1.82000      1.65036 1.38988e-005
      1.82500      1.65036 1.39378e-005
      1.83000      1.65036 1.39748e-005
      1.83500      1.65036 1.37908e-005
      1.84000      1.65036 1.38288e-005
      1.84500      1.65036 1.40898e-005
      1.85000      1.65036 1.41278e-005
      1.85500      1.65036 1.41668e-005
      1.86000      1.65036 1.42038e-005
      1.86500      1.65036 1.42418e-005
      1.87000      1.65036 1.40538e-005
      1.87500      1.65036 1.40908e-005
      1.88000      1.65036 1.45849e-005
      1.88500      1.65036 1.48530e-005
      1.89000      1.65036 1.48930e-005
      1.89500      1.65036 1.49320e-005
      1.90000      1.65036 1.49710e-005
      1.90500      1.65036 1.50110e-005
      1.91000      1.65036 1.52821e-005
      1.91500      1.65036 1.55551e-005
      1.92000      1.65036 1.55951e-005
      1.92500      1.65036 1.56361e-005
      1.93000      1.65036 1.59112e-005
      1.93500      1.65036 1.59522e-005
      1.94000      1.65036 1.59932e-005
      1.94500      1.65036 1.60342e-005
      1.95000      1.65036 1.60762e-005
      1.95500      1.65036 1.61172e-005
      1.96000      1.65036 1.61582e-005
      1.96500      1.65036 1.59612e-005
      1.97000      1.65036 1.60012e-005
      1.97500      1.65036 1.60422e-005
      1.98000      1.65036 1.60822e-005
      1.98500      1.65036 1.58822e-005
      1.99000      1.65036 1.61632e-005
      1.99500      1.65036 1.59622e-005
      2.00000      1.65036 1.60022e-005
      2.00500      1.65036 1.60422e-005
      2.01000      1.65036 1.58382e-005
      2.01500      1.65036 1.58772e-005
      2.02000      1.65036 1.59162e-005
      2.02500      1.65036 1.59562e-005
      2.03000      1.65036 1.59952e-005
      2.03500      1.65036 1.60352e-005
      2.04000      1.65036 1.60742e-005
      2.04500      1.65036 1.61132e-005
      2.05000      1.65036 1.61532e-005
      2.05500      1.65036 1.61922e-005
      2.06000      1.65036 1.62322e-005
      2.06500      1.65036 1.62713e-005
      2.07000      1.65036 1.60592e-005
      2.07500      1.65036 1.60982e-005
      2.08000      1.65036 1.61372e-005
      2.08500      1.65036 1.61762e-005
      2.09000      1.65036 1.62142e-005
      2.09500      1.65036 1.62533e-005
      2.10000      1.65036 1.62923e-005
      2.10500      1.65036 1.60762e-005
      2.11000      1.65036 1.61142e-005
      2.11500      1.65036 1.64083e-005
      2.12000      1.65036 1.61892e-005
      2.12500      1.65036 1.62282e-005
      2.13000      1.65036 1.62663e-005
      2.13500      1.65036 1.63043e-005
      2.14000      1.65036 1.66023e-005
      2.14500      1.65036 1.66413e-005
      2.15000      1.65036 1.66803e-005
      2.15500      1.65036 1.67193e-005
      2.16000      1.65036 1.67574e-005
      2.16500      1.65036 1.67964e-005
      2.17000      1.65036 1.70984e-005
      2.17500      1.65036 1.71374e-005
      2.18000      1.65036 1.69134e-005
      2.18500      1.65036 1.69514e-005
      2.19000      1.65036 1.72565e-005
      2.19500      1.65036 1.72955e-005
      2.20000      1.65036 1.73345e-005
      2.20500      1.65036 1.71074e-005
      2.21000      1.65036 1.71454e-005
      2.21500      1.65036 1.69154e-005
      2.22000      1.65036 1.69544e-005
      2.22500      1.65036 1.72615e-005
      2.23000      1.65036 1.73005e-005
      2.23500      1.65036 1.73395e-005
      2.24000      1.65036 1.76500e-005
      2.24500      1.65036 1.71444e-005
      2.25000      1.65036 1.74555e-005
      2.25500      1.65036 1.72214e-005
      2.26000      1.65036 1.72595e-005
      2.26500      1.65036 1.75720e-005
      2.27000      1.65036 1.76110e-005
      2.27500      1.65036 1.76500e-005
      2.28000      1.65036 1.76880e-005
      2.28500      1.65036 1.74505e-005
      2.29000      1.65036 1.74885e-005
      2.29500      1.65036 1.75270e-005
      2.30000      1.65036 1.78431e-005
      2.30500      1.65036 1.78831e-005
      2.31000      1.65036 1.79211e-005
      2.31500      1.65036 1.82411e-005
      2.32000      1.65036 1.79991e-005
      2.32500      1.65036 1.86022e-005
      2.33000      1.65036 1.83602e-005
      2.33500      1.65036 1.86822e-005
      2.34000      1.65036 1.87222e-005
      2.34500      1.65036 1.84782e-005
      2.35000      1.65036 1.85172e-005
      2.35500      1.65036 1.88423e-005
      2.36000      1.65036 1.88833e-005
      2.36500      1.65036 1.92093e-005
      2.37000      1.65036 1.89633e-005
      2.37500      1.65036 1.90033e-005
      2.38000      1.65036 1.93314e-005
      2.38500      1.65036 1.93724e-005
      2.39000      1.65036 1.94134e-005
      2.39500      1.65036 1.94534e-005
      2.40000      1.65036 1.94934e-005
      2.40500      1.65036 1.95344e-005
      2.41000      1.65036 1.95754e-005
      2.41500      1.65036 1.96154e-005
      2.42000      1.65036 1.96564e-005
      2.42500      1.65036 1.96974e-005
      2.43000      1.65036 2.00325e-005
      2.43500      1.65036 2.00735e-005
      2.44000      1.65036 2.01155e-005
      2.44500      1.65036 2.04536e-005
      2.45000      1.65036 2.04956e-005
      2.45500      1.65036 2.02395e-005
      2.46000      1.65036 2.02806e-005
      2.46500      1.65036 2.06206e-005
      2.47000      1.65036 2.06626e-005
      2.47500      1.65036 2.07046e-005
      2.48000      1.65036 2.04446e-005
      2.48500      1.65036 2.04866e-005
      2.49000      1.65036 2.05276e-005
      2.49500      1.65036 2.02656e-005
      2.50000      1.65036 2.06096e-005
      2.50500      1.65036 2.03476e-005
      2.51000      1.65036 2.03876e-005
      2.51500      1.65036 2.10387e-005
      2.52000      1.65036 2.07747e-005
      2.52500      1.65036 2.08167e-005
      2.53000      1.65036 2.11647e-005
      2.53500      1.65036 2.12067e-005
      2.54000      1.65036 2.15568e-005
      2.54500      1.65036 2.15988e-005
      2.55000      1.65036 2.16418e-005
      2.55500      1.65036 2.10637e-005
      2.56000      1.65036 2.20379e-005
      2.56500      1.65036 2.08347e-005
      2.57000      1.65036 2.11877e-005
      2.57500      1.65036 2.09147e-005
      2.58000      1.65036 2.09557e-005
      2.58500      1.65036 2.13108e-005
      2.59000      1.65036 2.13508e-005
      2.59500      1.65036 2.04476e-005
      2.60000      1.65036 2.08027e-005
